Roll Angle, Pitch Angle, AccX, AccY, AccZ, Timer
-0.41,-0.25,0.01,-0.02,0.89,9458676
-0.63,-0.39,0.01,-0.02,0.89,9462620
-0.76,-0.48,0.01,-0.02,0.89,9466576
-0.86,-0.54,0.01,-0.02,0.89,9470521
-0.92,-0.58,0.01,-0.02,0.89,9474468
-0.96,-0.61,0.01,-0.02,0.89,9478423
-1.00,-0.63,0.01,-0.02,0.89,9482366
-1.03,-0.64,0.01,-0.02,0.89,9486323
-1.05,-0.65,0.01,-0.02,0.89,9490267
-1.08,-0.66,0.01,-0.02,0.89,9494218
-1.09,-0.67,0.01,-0.02,0.89,9498159
-1.11,-0.68,0.01,-0.02,0.89,9502113
-1.12,-0.68,0.01,-0.02,0.89,9506075
-1.14,-0.68,0.01,-0.02,0.89,9510023
-1.16,-0.69,0.01,-0.02,0.89,9513985
-1.17,-0.70,0.01,-0.02,0.89,9517926
-1.18,-0.70,0.01,-0.02,0.89,9521872
-1.19,-0.71,0.01,-0.02,0.89,9525825
-1.19,-0.71,0.01,-0.02,0.89,9529766
-1.20,-0.72,0.01,-0.02,0.89,9533716
-1.20,-0.72,0.01,-0.02,0.89,9537652
-1.21,-0.73,0.01,-0.02,0.89,9541611
-1.22,-0.73,0.01,-0.02,0.89,9545560
-1.22,-0.74,0.01,-0.02,0.89,9549514
-1.23,-0.74,0.01,-0.02,0.89,9553470
-1.24,-0.75,0.01,-0.02,0.89,9557421
-1.24,-0.75,0.01,-0.02,0.89,9561376
-1.25,-0.75,0.01,-0.02,0.89,9565323
-1.25,-0.76,0.01,-0.02,0.89,9569275
-1.26,-0.76,0.01,-0.02,0.89,9573219
-1.26,-0.77,0.01,-0.02,0.89,9577166
-1.26,-0.77,0.01,-0.02,0.89,9581126
-1.27,-0.78,0.01,-0.02,0.89,9585075
-1.27,-0.78,0.01,-0.02,0.89,9589035
-1.27,-0.79,0.01,-0.02,0.89,9592983
-1.27,-0.79,0.01,-0.02,0.89,9596930
-1.27,-0.79,0.01,-0.02,0.89,9600880
-1.28,-0.80,0.01,-0.02,0.89,9604824
-1.28,-0.80,0.01,-0.02,0.89,9608782
-1.28,-0.80,0.01,-0.02,0.89,9612722
-1.28,-0.81,0.01,-0.02,0.89,9616683
-1.28,-0.81,0.01,-0.02,0.89,9620630
-1.28,-0.81,0.01,-0.02,0.89,9624585
-1.28,-0.81,0.01,-0.02,0.89,9628544
-1.28,-0.81,0.01,-0.02,0.89,9632488
-1.28,-0.81,0.01,-0.02,0.89,9636447
-1.29,-0.81,0.01,-0.02,0.89,9640397
-1.29,-0.82,0.01,-0.02,0.89,9644357
-1.29,-0.82,0.01,-0.02,0.89,9648307
-1.29,-0.82,0.01,-0.02,0.89,9652258
-1.30,-0.82,0.01,-0.02,0.89,9656212
-1.30,-0.82,0.01,-0.02,0.89,9660151
-1.30,-0.82,0.01,-0.02,0.89,9664105
-1.30,-0.82,0.01,-0.02,0.89,9668056
-1.31,-0.82,0.01,-0.02,0.89,9672003
-1.31,-0.82,0.01,-0.02,0.90,9675946
-1.31,-0.81,0.01,-0.02,0.90,9679891
-1.31,-0.81,0.01,-0.02,0.90,9683840
-1.31,-0.81,0.01,-0.02,0.89,9687786
-1.31,-0.81,0.01,-0.02,0.89,9691742
-1.31,-0.81,0.01,-0.02,0.89,9695686
-1.31,-0.81,0.01,-0.02,0.89,9699634
-1.31,-0.81,0.01,-0.02,0.89,9703587
-1.31,-0.81,0.01,-0.02,0.89,9707533
-1.32,-0.81,0.01,-0.02,0.89,9711492
-1.32,-0.81,0.01,-0.02,0.89,9715434
-1.32,-0.81,0.01,-0.02,0.89,9719390
-1.32,-0.81,0.01,-0.02,0.89,9723336
-1.32,-0.81,0.01,-0.02,0.89,9727290
-1.32,-0.81,0.01,-0.02,0.89,9731246
-1.32,-0.81,0.01,-0.02,0.89,9735190
-1.32,-0.81,0.01,-0.02,0.89,9739149
-1.32,-0.81,0.01,-0.02,0.89,9743099
-1.32,-0.81,0.01,-0.02,0.89,9747055
-1.32,-0.81,0.01,-0.02,0.89,9751001
-1.32,-0.81,0.01,-0.02,0.89,9754952
-1.32,-0.82,0.01,-0.02,0.89,9758911
-1.32,-0.82,0.01,-0.02,0.89,9762859
-1.32,-0.82,0.01,-0.02,0.89,9766815
-1.32,-0.82,0.01,-0.02,0.89,9770759
-1.32,-0.82,0.01,-0.02,0.89,9774706
-1.32,-0.82,0.01,-0.02,0.89,9778662
-1.32,-0.82,0.01,-0.02,0.89,9782605
-1.32,-0.82,0.01,-0.02,0.89,9786565
-1.32,-0.82,0.01,-0.02,0.89,9790512
-1.32,-0.82,0.01,-0.02,0.89,9794471
-1.32,-0.82,0.01,-0.02,0.89,9798419
-1.32,-0.82,0.01,-0.02,0.90,9802368
-1.32,-0.82,0.01,-0.02,0.90,9806323
-1.32,-0.82,0.01,-0.02,0.89,9810266
-1.32,-0.83,0.01,-0.02,0.90,9814220
-1.32,-0.83,0.01,-0.02,0.89,9818158
-1.32,-0.83,0.01,-0.02,0.89,9822119
-1.32,-0.83,0.01,-0.02,0.89,9826069
-1.33,-0.83,0.01,-0.02,0.89,9830028
-1.33,-0.83,0.01,-0.02,0.89,9833989
-1.33,-0.83,0.01,-0.02,0.89,9837933
-1.33,-0.83,0.01,-0.02,0.90,9841888
-1.33,-0.83,0.01,-0.02,0.89,9845833
-1.33,-0.83,0.01,-0.02,0.89,9849788
-1.33,-0.83,0.01,-0.02,0.89,9853742
-1.33,-0.83,0.01,-0.02,0.89,9857688
-1.33,-0.83,0.01,-0.02,0.89,9861645
-1.33,-0.83,0.01,-0.02,0.89,9865591
-1.33,-0.83,0.01,-0.02,0.89,9869545
-1.33,-0.83,0.01,-0.02,0.89,9873485
-1.33,-0.83,0.01,-0.02,0.89,9877433
-1.33,-0.83,0.01,-0.02,0.89,9881387
-1.33,-0.83,0.01,-0.02,0.89,9885334
-1.33,-0.83,0.01,-0.02,0.89,9889291
-1.33,-0.83,0.01,-0.02,0.89,9893237
-1.33,-0.83,0.01,-0.02,0.89,9897197
-1.33,-0.83,0.01,-0.02,0.89,9901143
-1.33,-0.83,0.01,-0.02,0.89,9905094
-1.33,-0.83,0.01,-0.02,0.89,9909057
-1.33,-0.83,0.01,-0.02,0.89,9913007
-1.33,-0.83,0.01,-0.02,0.89,9916963
-1.33,-0.83,0.01,-0.02,0.89,9920908
-1.33,-0.83,0.01,-0.02,0.89,9924863
-1.33,-0.83,0.01,-0.02,0.89,9928808
-1.33,-0.83,0.01,-0.02,0.89,9932762
-1.33,-0.83,0.01,-0.02,0.89,9936721
-1.33,-0.83,0.01,-0.02,0.89,9940661
-1.33,-0.83,0.01,-0.02,0.89,9944620
-1.33,-0.83,0.01,-0.02,0.89,9948568
-1.33,-0.83,0.01,-0.02,0.89,9952520
-1.33,-0.83,0.01,-0.02,0.89,9956475
-1.33,-0.83,0.01,-0.02,0.89,9960417
-1.33,-0.84,0.01,-0.02,0.89,9964376
-1.33,-0.84,0.01,-0.02,0.89,9968320
-1.33,-0.84,0.01,-0.02,0.89,9972272
-1.33,-0.84,0.01,-0.02,0.89,9976214
-1.33,-0.84,0.01,-0.02,0.89,9980163
-1.33,-0.84,0.01,-0.02,0.89,9984129
-1.33,-0.84,0.01,-0.02,0.89,9988078
-1.33,-0.84,0.01,-0.02,0.89,9992036
-1.33,-0.84,0.01,-0.02,0.89,9995986
-1.33,-0.84,0.01,-0.02,0.89,9999949
-1.33,-0.84,0.01,-0.02,0.89,10003895
-1.33,-0.84,0.01,-0.02,0.89,10007853
-1.33,-0.84,0.01,-0.02,0.89,10011802
-1.33,-0.84,0.01,-0.02,0.89,10015748
-1.33,-0.84,0.01,-0.02,0.89,10019706
-1.33,-0.84,0.01,-0.02,0.90,10023649
-1.33,-0.84,0.01,-0.02,0.89,10027600
-1.33,-0.84,0.01,-0.02,0.89,10031552
-1.33,-0.84,0.01,-0.02,0.89,10035497
-1.33,-0.84,0.01,-0.02,0.89,10039454
-1.33,-0.84,0.01,-0.02,0.89,10043402
-1.33,-0.84,0.01,-0.02,0.89,10047351
-1.32,-0.84,0.01,-0.02,0.89,10051308
-1.32,-0.84,0.01,-0.02,0.89,10055262
-1.32,-0.84,0.01,-0.02,0.89,10059215
-1.32,-0.84,0.01,-0.02,0.89,10063164
-1.32,-0.84,0.01,-0.02,0.89,10067114
-1.32,-0.84,0.01,-0.02,0.89,10071078
-1.32,-0.84,0.01,-0.02,0.89,10075028
-1.32,-0.84,0.01,-0.02,0.89,10078986
-1.32,-0.84,0.01,-0.02,0.89,10082936
-1.32,-0.84,0.01,-0.02,0.89,10086882
-1.32,-0.84,0.01,-0.02,0.89,10090842
-1.32,-0.84,0.01,-0.02,0.89,10094789
-1.32,-0.84,0.01,-0.02,0.89,10098746
-1.32,-0.83,0.01,-0.02,0.89,10102691
-1.33,-0.83,0.01,-0.02,0.89,10106638
-1.33,-0.83,0.01,-0.02,0.89,10110589
-1.33,-0.83,0.01,-0.02,0.89,10114533
-1.33,-0.83,0.01,-0.02,0.89,10118493
-1.33,-0.83,0.01,-0.02,0.89,10122446
-1.33,-0.83,0.01,-0.02,0.89,10126407
-1.33,-0.83,0.01,-0.02,0.89,10130352
-1.33,-0.83,0.01,-0.02,0.89,10134299
-1.33,-0.83,0.01,-0.02,0.89,10138262
-1.33,-0.83,0.01,-0.02,0.89,10142212
-1.33,-0.83,0.01,-0.02,0.89,10146173
-1.33,-0.83,0.01,-0.02,0.89,10150123
-1.33,-0.84,0.01,-0.02,0.89,10154076
-1.33,-0.84,0.01,-0.02,0.89,10158039
-1.33,-0.84,0.01,-0.02,0.89,10161987
-1.33,-0.84,0.01,-0.02,0.89,10165942
-1.33,-0.84,0.01,-0.02,0.89,10169890
-1.33,-0.84,0.01,-0.02,0.89,10173839
-1.33,-0.84,0.01,-0.02,0.89,10177801
-1.33,-0.84,0.01,-0.02,0.89,10181749
-1.33,-0.84,0.02,-0.02,0.89,10185700
-1.33,-0.84,0.01,-0.02,0.89,10189652
-1.33,-0.84,0.01,-0.02,0.89,10193608
-1.33,-0.84,0.01,-0.02,0.89,10197566
-1.33,-0.84,0.02,-0.02,0.89,10201515
-1.33,-0.84,0.01,-0.02,0.89,10205481
-1.32,-0.84,0.01,-0.02,0.89,10209429
-1.32,-0.84,0.01,-0.02,0.89,10213380
-1.32,-0.84,0.01,-0.02,0.89,10217332
-1.32,-0.84,0.01,-0.02,0.89,10221287
-1.32,-0.84,0.01,-0.02,0.89,10225244
-1.32,-0.84,0.01,-0.02,0.89,10229188
-1.32,-0.85,0.02,-0.02,0.89,10233137
-1.32,-0.85,0.02,-0.02,0.89,10237093
-1.32,-0.85,0.01,-0.02,0.89,10241037
-1.32,-0.85,0.01,-0.02,0.89,10244992
-1.32,-0.85,0.01,-0.02,0.89,10248951
-1.32,-0.85,0.01,-0.02,0.89,10252906
-1.32,-0.85,0.01,-0.02,0.89,10256855
-1.32,-0.85,0.01,-0.02,0.89,10260804
-1.32,-0.85,0.01,-0.02,0.89,10264755
-1.32,-0.85,0.01,-0.02,0.89,10268699
-1.32,-0.85,0.01,-0.02,0.89,10272656
-1.32,-0.84,0.01,-0.02,0.89,10276605
-1.32,-0.84,0.01,-0.02,0.89,10280557
-1.32,-0.84,0.01,-0.02,0.89,10284517
-1.32,-0.84,0.01,-0.02,0.89,10288465
-1.32,-0.84,0.01,-0.02,0.89,10292420
-1.32,-0.84,0.01,-0.02,0.89,10296368
-1.32,-0.84,0.01,-0.02,0.89,10300316
-1.32,-0.84,0.01,-0.02,0.89,10304274
-1.32,-0.84,0.01,-0.02,0.89,10308222
-1.32,-0.84,0.01,-0.02,0.89,10312182
-1.32,-0.84,0.01,-0.02,0.89,10316136
-1.32,-0.84,0.01,-0.02,0.89,10320087
-1.32,-0.84,0.01,-0.02,0.89,10324042
-1.32,-0.84,0.01,-0.02,0.89,10328002
-1.32,-0.84,0.01,-0.02,0.89,10331958
-1.32,-0.84,0.01,-0.02,0.89,10335905
-1.32,-0.84,0.01,-0.02,0.89,10339859
-1.32,-0.84,0.01,-0.02,0.89,10343815
-1.32,-0.84,0.01,-0.02,0.89,10347769
-1.32,-0.84,0.01,-0.02,0.89,10351733
-1.32,-0.84,0.01,-0.02,0.89,10355679
-1.32,-0.84,0.01,-0.02,0.89,10359631
-1.32,-0.84,0.01,-0.02,0.89,10363583
-1.32,-0.84,0.01,-0.02,0.89,10367527
-1.32,-0.84,0.01,-0.02,0.89,10371488
-1.32,-0.84,0.01,-0.02,0.89,10375435
-1.32,-0.84,0.01,-0.02,0.89,10379394
-1.31,-0.84,0.01,-0.02,0.89,10383339
-1.31,-0.83,0.01,-0.02,0.89,10387292
-1.31,-0.83,0.01,-0.02,0.89,10391238
-1.31,-0.83,0.01,-0.02,0.89,10395183
-1.31,-0.83,0.01,-0.02,0.89,10399149
-1.31,-0.83,0.01,-0.02,0.89,10403098
-1.31,-0.83,0.01,-0.02,0.89,10407051
-1.31,-0.83,0.01,-0.02,0.89,10411011
-1.31,-0.83,0.01,-0.02,0.89,10414953
-1.31,-0.84,0.02,-0.02,0.89,10418914
-1.31,-0.84,0.02,-0.02,0.89,10422862
-1.31,-0.84,0.02,-0.02,0.89,10426810
-1.31,-0.84,0.02,-0.02,0.89,10430767
-1.31,-0.84,0.02,-0.02,0.89,10434716
-1.31,-0.84,0.02,-0.02,0.89,10438669
-1.32,-0.85,0.02,-0.02,0.89,10442615
-1.32,-0.85,0.02,-0.02,0.89,10446571
-1.32,-0.85,0.02,-0.02,0.89,10450524
-1.32,-0.85,0.02,-0.02,0.89,10454466
-1.32,-0.85,0.02,-0.02,0.89,10458418
-1.32,-0.86,0.02,-0.02,0.89,10462367
-1.32,-0.86,0.02,-0.02,0.89,10466317
-1.32,-0.86,0.02,-0.02,0.89,10470275
-1.32,-0.87,0.02,-0.02,0.89,10474225
-1.32,-0.87,0.02,-0.02,0.89,10478177
-1.32,-0.87,0.02,-0.02,0.89,10482124
-1.32,-0.87,0.02,-0.02,0.89,10486075
-1.32,-0.87,0.02,-0.02,0.89,10490029
-1.32,-0.87,0.01,-0.02,0.89,10493969
-1.32,-0.87,0.01,-0.02,0.89,10497924
-1.32,-0.87,0.01,-0.02,0.89,10501870
-1.32,-0.87,0.01,-0.02,0.89,10505827
-1.32,-0.86,0.01,-0.02,0.89,10509770
-1.32,-0.86,0.01,-0.02,0.89,10513720
-1.32,-0.86,0.01,-0.02,0.89,10517677
-1.32,-0.86,0.01,-0.02,0.89,10521620
-1.32,-0.85,0.01,-0.02,0.89,10525579
-1.32,-0.85,0.01,-0.02,0.89,10529527
-1.32,-0.85,0.01,-0.02,0.89,10533478
-1.32,-0.84,0.01,-0.02,0.89,10537438
-1.32,-0.84,0.01,-0.02,0.89,10541385
-1.32,-0.84,0.01,-0.02,0.89,10545336
-1.32,-0.84,0.01,-0.02,0.89,10549277
-1.32,-0.83,0.01,-0.02,0.89,10553235
-1.32,-0.83,0.01,-0.02,0.89,10557191
-1.32,-0.83,0.01,-0.02,0.89,10561138
-1.32,-0.83,0.01,-0.02,0.89,10565099
-1.32,-0.82,0.01,-0.02,0.89,10569051
-1.32,-0.82,0.01,-0.02,0.89,10573008
-1.32,-0.82,0.01,-0.02,0.89,10576962
-1.32,-0.82,0.01,-0.02,0.89,10580911
-1.32,-0.82,0.01,-0.02,0.89,10584863
-1.32,-0.82,0.01,-0.02,0.89,10588808
-1.32,-0.82,0.01,-0.02,0.89,10592757
-1.32,-0.82,0.01,-0.02,0.89,10596715
-1.32,-0.82,0.01,-0.02,0.89,10600665
-1.32,-0.83,0.01,-0.02,0.89,10604613
-1.32,-0.83,0.02,-0.02,0.89,10608557
-1.32,-0.83,0.02,-0.02,0.89,10612511
-1.32,-0.83,0.02,-0.02,0.89,10616456
-1.32,-0.83,0.02,-0.02,0.89,10620404
-1.32,-0.84,0.02,-0.02,0.89,10624354
-1.32,-0.84,0.02,-0.02,0.89,10628300
-1.32,-0.84,0.02,-0.02,0.90,10632255
-1.32,-0.84,0.02,-0.02,0.90,10636191
-1.32,-0.85,0.02,-0.02,0.89,10640136
-1.32,-0.85,0.02,-0.02,0.90,10644085
-1.32,-0.85,0.02,-0.02,0.89,10648037
-1.33,-0.85,0.02,-0.02,0.89,10651989
-1.33,-0.85,0.02,-0.02,0.89,10655934
-1.33,-0.85,0.02,-0.02,0.89,10659882
-1.33,-0.85,0.01,-0.02,0.89,10663840
-1.33,-0.85,0.01,-0.02,0.89,10667787
-1.33,-0.85,0.01,-0.02,0.89,10671750
-1.33,-0.85,0.01,-0.02,0.89,10675692
-1.33,-0.85,0.01,-0.02,0.89,10679637
-1.33,-0.85,0.01,-0.02,0.89,10683600
-1.33,-0.85,0.01,-0.02,0.89,10687551
-1.33,-0.85,0.01,-0.02,0.89,10691507
-1.33,-0.85,0.01,-0.02,0.89,10695454
-1.33,-0.84,0.01,-0.02,0.89,10699410
-1.33,-0.84,0.01,-0.02,0.89,10703363
-1.33,-0.84,0.01,-0.02,0.89,10707314
-1.33,-0.84,0.01,-0.02,0.89,10711268
-1.33,-0.84,0.01,-0.02,0.89,10715217
-1.33,-0.84,0.01,-0.02,0.89,10719168
-1.33,-0.84,0.01,-0.02,0.89,10723123
-1.33,-0.84,0.01,-0.02,0.89,10727072
-1.33,-0.84,0.01,-0.02,0.89,10731031
-1.33,-0.84,0.01,-0.02,0.89,10734975
-1.33,-0.84,0.01,-0.02,0.89,10738927
-1.33,-0.84,0.01,-0.02,0.89,10742874
-1.33,-0.84,0.01,-0.02,0.89,10746825
-1.33,-0.84,0.01,-0.02,0.89,10750780
-1.33,-0.83,0.01,-0.02,0.89,10754730
-1.33,-0.83,0.01,-0.02,0.89,10758693
-1.33,-0.83,0.01,-0.02,0.89,10762641
-1.33,-0.83,0.01,-0.02,0.89,10766592
-1.33,-0.83,0.01,-0.02,0.89,10770542
-1.33,-0.83,0.02,-0.02,0.89,10774484
-1.33,-0.84,0.02,-0.02,0.89,10778440
-1.33,-0.84,0.02,-0.02,0.89,10782384
-1.33,-0.84,0.02,-0.02,0.89,10786339
-1.33,-0.84,0.02,-0.02,0.89,10790296
-1.33,-0.84,0.02,-0.02,0.89,10794245
-1.33,-0.85,0.02,-0.02,0.89,10798207
-1.33,-0.85,0.02,-0.02,0.89,10802161
-1.33,-0.85,0.02,-0.02,0.89,10806117
-1.33,-0.85,0.02,-0.02,0.89,10810078
-1.33,-0.85,0.02,-0.02,0.89,10814029
-1.33,-0.85,0.01,-0.02,0.89,10817989
-1.33,-0.85,0.01,-0.02,0.89,10821942
-1.33,-0.85,0.01,-0.02,0.89,10825903
-1.33,-0.85,0.01,-0.02,0.89,10829861
-1.33,-0.85,0.01,-0.02,0.89,10833807
-1.33,-0.85,0.01,-0.02,0.89,10837768
-1.33,-0.85,0.01,-0.02,0.89,10841714
-1.33,-0.85,0.01,-0.02,0.89,10845666
-1.33,-0.85,0.01,-0.02,0.89,10849624
-1.34,-0.85,0.01,-0.02,0.89,10853570
-1.34,-0.84,0.01,-0.02,0.89,10857529
-1.33,-0.84,0.01,-0.02,0.89,10861474
-1.33,-0.84,0.01,-0.02,0.89,10865429
-1.33,-0.84,0.01,-0.02,0.89,10869387
-1.33,-0.84,0.01,-0.02,0.89,10873333
-1.33,-0.84,0.01,-0.02,0.89,10877289
-1.33,-0.84,0.01,-0.02,0.89,10881229
-1.33,-0.84,0.01,-0.02,0.89,10885192
-1.33,-0.84,0.02,-0.02,0.89,10889142
-1.33,-0.84,0.02,-0.02,0.89,10893089
-1.33,-0.85,0.02,-0.02,0.89,10897053
-1.33,-0.85,0.02,-0.02,0.89,10900995
-1.33,-0.85,0.03,-0.02,0.89,10904957
-1.33,-0.86,0.02,-0.02,0.89,10908899
-1.33,-0.86,0.02,-0.03,0.89,10912849
-1.33,-0.86,0.02,-0.02,0.90,10916806
-1.33,-0.86,0.02,-0.02,0.89,10920746
-1.33,-0.87,0.02,-0.02,0.89,10924699
-1.33,-0.87,0.02,-0.02,0.89,10928642
-1.33,-0.87,0.02,-0.02,0.89,10932597
-1.33,-0.87,0.02,-0.02,0.89,10936553
-1.33,-0.87,0.02,-0.02,0.89,10940500
-1.33,-0.87,0.01,-0.02,0.89,10944463
-1.33,-0.87,0.01,-0.02,0.89,10948410
-1.33,-0.87,0.01,-0.02,0.89,10952363
-1.33,-0.87,0.01,-0.02,0.89,10956323
-1.33,-0.87,0.01,-0.02,0.89,10960272
-1.33,-0.86,0.01,-0.02,0.89,10964225
-1.33,-0.86,0.01,-0.02,0.89,10968173
-1.33,-0.86,0.01,-0.02,0.89,10972112
-1.33,-0.86,0.01,-0.02,0.89,10976054
-1.33,-0.86,0.01,-0.02,0.89,10979998
-1.33,-0.86,0.01,-0.02,0.89,10983956
-1.33,-0.86,0.01,-0.02,0.89,10987897
-1.33,-0.86,0.01,-0.02,0.89,10991845
-1.33,-0.86,0.01,-0.02,0.89,10995801
-1.33,-0.86,0.02,-0.02,0.89,10999745
-1.32,-0.86,0.02,-0.02,0.89,11003706
-1.32,-0.86,0.02,-0.02,0.89,11007646
-1.32,-0.86,0.02,-0.02,0.89,11011610
-1.32,-0.86,0.01,-0.02,0.89,11015552
-1.32,-0.86,0.01,-0.02,0.89,11019503
-1.32,-0.86,0.01,-0.02,0.90,11023451
-1.33,-0.86,0.02,-0.02,0.90,11027397
-1.33,-0.87,0.02,-0.03,0.89,11031352
-1.33,-0.87,0.02,-0.02,0.89,11035292
-1.33,-0.87,0.02,-0.02,0.90,11039236
-1.33,-0.87,0.02,-0.02,0.89,11043195
-1.33,-0.88,0.02,-0.02,0.89,11047140
-1.33,-0.88,0.02,-0.02,0.89,11051103
-1.33,-0.88,0.02,-0.02,0.89,11055049
-1.33,-0.88,0.02,-0.02,0.89,11059001
-1.32,-0.88,0.01,-0.01,0.89,11062969
-1.32,-0.88,0.01,-0.01,0.89,11066915
-1.32,-0.87,0.01,-0.01,0.89,11070873
-1.32,-0.87,0.01,-0.02,0.89,11074817
-1.32,-0.87,0.01,-0.02,0.89,11078772
-1.32,-0.86,0.00,-0.02,0.89,11082726
-1.32,-0.86,-0.00,-0.03,0.89,11086665
-1.32,-0.85,-0.00,-0.03,0.89,11090622
-1.33,-0.85,-0.00,-0.03,0.89,11094563
-1.33,-0.84,-0.00,-0.03,0.89,11098515
-1.33,-0.84,-0.00,-0.03,0.89,11102469
-1.34,-0.83,0.00,-0.03,0.89,11106412
-1.34,-0.83,0.00,-0.02,0.89,11110370
-1.34,-0.83,0.00,-0.02,0.89,11114309
-1.33,-0.83,0.01,-0.02,0.89,11118261
-1.33,-0.82,0.01,-0.02,0.89,11122218
-1.33,-0.82,0.01,-0.02,0.89,11126159
-1.33,-0.82,0.01,-0.02,0.89,11130119
-1.33,-0.83,0.02,-0.02,0.89,11134075
-1.33,-0.83,0.02,-0.02,0.89,11138029
-1.33,-0.84,0.03,-0.02,0.89,11141987
-1.34,-0.84,0.03,-0.02,0.90,11145931
-1.33,-0.85,0.04,-0.02,0.90,11149884
-1.33,-0.86,0.04,-0.02,0.89,11153831
-1.33,-0.86,0.04,-0.02,0.89,11157778
-1.33,-0.87,0.03,-0.02,0.89,11161727
-1.33,-0.88,0.03,-0.02,0.89,11165666
-1.33,-0.88,0.03,-0.02,0.89,11169622
-1.33,-0.88,0.02,-0.02,0.89,11173562
-1.33,-0.88,0.02,-0.02,0.89,11177520
-1.33,-0.88,0.01,-0.02,0.89,11181465
-1.33,-0.88,0.01,-0.02,0.89,11185416
-1.33,-0.87,0.01,-0.03,0.89,11189372
-1.34,-0.87,0.00,-0.03,0.89,11193313
-1.34,-0.86,-0.00,-0.02,0.89,11197266
-1.34,-0.86,0.00,-0.02,0.89,11201208
-1.34,-0.85,0.00,-0.02,0.89,11205156
-1.34,-0.85,0.00,-0.02,0.89,11209117
-1.34,-0.84,0.00,-0.02,0.89,11213056
-1.34,-0.84,0.00,-0.02,0.89,11217016
-1.33,-0.83,-0.00,-0.02,0.89,11220959
-1.33,-0.83,-0.00,-0.02,0.89,11224910
-1.33,-0.82,-0.01,-0.01,0.89,11228871
-1.33,-0.81,-0.01,-0.01,0.89,11232813
-1.32,-0.81,-0.01,-0.01,0.89,11236765
-1.32,-0.80,-0.01,-0.01,0.89,11240713
-1.32,-0.79,-0.01,-0.01,0.89,11244659
-1.31,-0.79,-0.00,-0.01,0.89,11248614
-1.31,-0.79,-0.00,-0.01,0.89,11252556
-1.30,-0.78,0.00,-0.01,0.89,11256503
-1.30,-0.78,0.01,-0.02,0.90,11260444
-1.30,-0.78,0.01,-0.02,0.89,11264383
-1.30,-0.78,0.00,-0.03,0.89,11268335
-1.31,-0.78,0.00,-0.03,0.89,11272274
-1.31,-0.78,0.01,-0.04,0.89,11276232
-1.32,-0.78,0.02,-0.04,0.90,11280169
-1.32,-0.79,0.03,-0.03,0.89,11284124
-1.32,-0.80,0.05,-0.03,0.90,11288076
-1.32,-0.82,0.05,-0.02,0.90,11292014
-1.32,-0.83,0.05,-0.02,0.90,11295966
-1.32,-0.85,0.05,-0.01,0.90,11299905
-1.31,-0.85,0.04,-0.01,0.89,11303866
-1.31,-0.86,0.03,-0.01,0.89,11307824
-1.31,-0.86,0.02,-0.01,0.89,11311776
-1.31,-0.86,0.02,-0.02,0.89,11315732
-1.31,-0.86,0.02,-0.03,0.89,11319681
-1.31,-0.87,0.02,-0.03,0.89,11323634
-1.32,-0.87,0.02,-0.04,0.90,11327592
-1.33,-0.87,0.02,-0.04,0.89,11331540
-1.33,-0.87,0.01,-0.04,0.89,11335496
-1.34,-0.86,0.01,-0.03,0.89,11339442
-1.34,-0.87,0.02,-0.03,0.89,11343394
-1.34,-0.87,0.02,-0.02,0.89,11347351
-1.34,-0.87,0.03,-0.01,0.90,11351300
-1.33,-0.87,0.03,-0.01,0.90,11355260
-1.33,-0.88,0.02,-0.01,0.89,11359202
-1.32,-0.88,0.02,-0.00,0.89,11363144
-1.32,-0.87,0.00,-0.00,0.89,11367096
-1.31,-0.86,-0.01,-0.00,0.89,11371039
-1.31,-0.85,-0.02,-0.01,0.89,11374997
-1.30,-0.84,-0.02,-0.01,0.89,11378944
-1.30,-0.83,-0.02,-0.02,0.89,11382897
-1.30,-0.82,-0.02,-0.02,0.89,11386853
-1.31,-0.81,-0.01,-0.03,0.89,11390803
-1.31,-0.80,-0.01,-0.03,0.89,11394756
-1.32,-0.80,-0.00,-0.03,0.89,11398697
-1.32,-0.80,0.00,-0.04,0.89,11402634
-1.33,-0.79,0.00,-0.03,0.89,11406590
-1.33,-0.79,0.01,-0.03,0.89,11410530
-1.33,-0.80,0.02,-0.03,0.89,11414488
-1.33,-0.80,0.02,-0.02,0.89,11418426
-1.33,-0.81,0.03,-0.02,0.89,11422376
-1.33,-0.81,0.03,-0.01,0.89,11426332
-1.32,-0.82,0.03,-0.01,0.89,11430285
-1.32,-0.82,0.02,-0.01,0.89,11434236
-1.31,-0.82,0.01,-0.01,0.89,11438184
-1.31,-0.82,0.01,-0.01,0.89,11442136
-1.31,-0.82,0.01,-0.02,0.89,11446091
-1.31,-0.82,0.01,-0.02,0.89,11450038
-1.31,-0.82,0.01,-0.03,0.89,11453999
-1.32,-0.82,0.02,-0.03,0.89,11457951
-1.32,-0.82,0.02,-0.03,0.89,11461905
-1.32,-0.82,0.02,-0.03,0.89,11465850
-1.32,-0.83,0.03,-0.02,0.89,11469798
-1.32,-0.83,0.03,-0.02,0.89,11473753
-1.33,-0.84,0.03,-0.02,0.90,11477697
-1.32,-0.84,0.03,-0.02,0.90,11481658
-1.32,-0.85,0.03,-0.02,0.90,11485594
-1.32,-0.85,0.02,-0.01,0.89,11489544
-1.32,-0.85,0.02,-0.01,0.89,11493498
-1.31,-0.85,0.01,-0.01,0.89,11497440
-1.31,-0.84,0.00,-0.02,0.89,11501397
-1.31,-0.84,-0.01,-0.02,0.89,11505343
-1.31,-0.83,-0.02,-0.03,0.89,11509286
-1.32,-0.81,-0.02,-0.03,0.89,11513244
-1.32,-0.80,-0.02,-0.03,0.89,11517185
-1.32,-0.79,-0.02,-0.03,0.89,11521141
-1.33,-0.78,-0.02,-0.03,0.89,11525103
-1.33,-0.78,-0.01,-0.03,0.89,11529047
-1.33,-0.77,-0.00,-0.02,0.89,11533005
-1.33,-0.77,-0.00,-0.02,0.89,11536951
-1.32,-0.76,-0.00,-0.01,0.89,11540894
-1.31,-0.76,-0.01,0.00,0.89,11544845
-1.30,-0.76,-0.01,0.01,0.89,11548781
-1.29,-0.75,-0.00,0.01,0.89,11552726
-1.28,-0.75,0.00,0.00,0.89,11556668
-1.27,-0.75,0.00,-0.00,0.89,11560604
-1.27,-0.75,0.00,-0.02,0.89,11564546
-1.27,-0.75,-0.00,-0.03,0.89,11568490
-1.27,-0.74,-0.00,-0.03,0.89,11572438
-1.28,-0.74,-0.00,-0.04,0.89,11576381
-1.29,-0.74,0.01,-0.04,0.89,11580336
-1.29,-0.75,0.02,-0.05,0.89,11584286
-1.30,-0.76,0.04,-0.05,0.90,11588225
-1.31,-0.78,0.05,-0.04,0.90,11592181
-1.31,-0.79,0.06,-0.03,0.90,11596128
-1.31,-0.81,0.06,-0.02,0.90,11600083
-1.31,-0.83,0.06,-0.02,0.90,11604030
-1.30,-0.84,0.05,-0.01,0.90,11607969
-1.30,-0.85,0.04,-0.01,0.90,11611920
-1.29,-0.86,0.04,-0.00,0.90,11615856
-1.29,-0.87,0.04,-0.01,0.90,11619813
-1.28,-0.88,0.04,-0.01,0.90,11623757
-1.28,-0.89,0.04,-0.02,0.89,11627705
-1.28,-0.89,0.03,-0.02,0.89,11631664
-1.29,-0.89,0.02,-0.03,0.89,11635614
-1.29,-0.89,0.02,-0.03,0.89,11639574
-1.30,-0.89,0.01,-0.04,0.89,11643520
-1.30,-0.89,0.01,-0.04,0.89,11647471
-1.31,-0.89,0.02,-0.04,0.89,11651424
-1.32,-0.89,0.02,-0.04,0.89,11655370
-1.32,-0.89,0.02,-0.03,0.89,11659328
-1.32,-0.90,0.02,-0.03,0.89,11663273
-1.32,-0.90,0.02,-0.02,0.89,11667224
-1.32,-0.89,0.01,-0.02,0.89,11671185
-1.32,-0.89,0.00,-0.01,0.89,11675134
-1.32,-0.88,-0.00,-0.00,0.89,11679094
-1.31,-0.88,-0.00,0.00,0.89,11683033
-1.30,-0.87,0.00,0.00,0.89,11686972
-1.30,-0.87,0.00,-0.00,0.89,11690917
-1.30,-0.86,0.01,-0.01,0.89,11694862
-1.30,-0.86,-0.00,-0.03,0.89,11698817
-1.31,-0.85,-0.02,-0.04,0.89,11702762
-1.32,-0.84,-0.01,-0.04,0.89,11706708
-1.34,-0.84,0.01,-0.08,0.89,11710661
-1.35,-0.84,0.03,-0.05,0.90,11714602
-1.35,-0.85,0.05,-0.01,0.89,11718556
-1.33,-0.87,0.09,0.05,0.90,11722498
-1.30,-0.90,0.11,0.07,0.89,11726446
-1.27,-0.94,0.14,0.06,0.91,11730395
-1.25,-0.98,0.13,0.05,0.91,11734347
-1.23,-1.00,0.10,0.02,0.90,11738300
-1.23,-1.00,0.03,-0.03,0.90,11742236
-1.26,-0.97,-0.04,-0.09,0.89,11746195
-1.29,-0.94,-0.09,-0.11,0.89,11750146
-1.32,-0.89,-0.13,-0.13,0.88,11754113
-1.36,-0.83,-0.14,-0.13,0.88,11758082
-1.40,-0.79,-0.12,-0.12,0.89,11762027
-1.43,-0.76,-0.08,-0.10,0.88,11765980
-1.44,-0.75,-0.02,-0.07,0.90,11769928
-1.45,-0.75,0.02,-0.03,0.90,11773873
-1.43,-0.76,0.04,0.02,0.89,11777826
-1.41,-0.77,0.05,0.05,0.90,11781770
-1.38,-0.78,0.04,0.06,0.89,11785731
-1.35,-0.79,0.02,0.06,0.90,11789671
-1.33,-0.79,0.00,0.05,0.89,11793615
-1.31,-0.78,-0.01,0.03,0.89,11797574
-1.29,-0.77,-0.02,0.01,0.89,11801520
-1.29,-0.75,-0.04,-0.02,0.88,11805474
-1.29,-0.73,-0.06,-0.04,0.88,11809416
-1.30,-0.70,-0.08,-0.04,0.88,11813357
-1.30,-0.67,-0.09,-0.04,0.88,11817316
-1.31,-0.65,-0.08,-0.03,0.88,11821262
-1.31,-0.63,-0.05,-0.03,0.89,11825218
-1.31,-0.63,-0.00,-0.02,0.89,11829165
-1.30,-0.64,0.04,-0.01,0.89,11833127
-1.30,-0.67,0.07,-0.00,0.90,11837070
-1.29,-0.70,0.09,-0.00,0.90,11841004
-1.28,-0.72,0.09,-0.01,0.90,11844955
-1.28,-0.75,0.08,-0.01,0.90,11848901
-1.28,-0.77,0.07,-0.01,0.90,11852847
-1.27,-0.79,0.06,-0.01,0.90,11856805
-1.27,-0.81,0.06,-0.02,0.90,11860744
-1.27,-0.82,0.06,-0.03,0.90,11864696
-1.27,-0.84,0.06,-0.03,0.90,11868640
-1.27,-0.85,0.05,-0.04,0.90,11872578
-1.28,-0.86,0.04,-0.03,0.90,11876530
-1.28,-0.86,0.02,-0.03,0.89,11880476
-1.29,-0.86,0.01,-0.03,0.89,11884428
-1.29,-0.86,0.01,-0.03,0.89,11888376
-1.29,-0.86,0.02,-0.02,0.89,11892332
-1.29,-0.86,0.03,-0.02,0.89,11896282
-1.29,-0.87,0.05,-0.02,0.90,11900227
-1.30,-0.89,0.07,-0.03,0.90,11904179
-1.31,-0.90,0.07,-0.03,0.90,11908116
-1.31,-0.92,0.07,-0.03,0.90,11912062
-1.32,-0.93,0.07,-0.03,0.90,11916011
-1.32,-0.95,0.06,-0.03,0.90,11919956
-1.33,-0.95,0.05,-0.03,0.90,11923910
-1.33,-0.96,0.05,-0.03,0.90,11927849
-1.34,-0.96,0.04,-0.03,0.90,11931799
-1.34,-0.96,0.02,-0.03,0.90,11935738
-1.34,-0.95,-0.01,-0.03,0.89,11939692
-1.35,-0.93,-0.03,-0.04,0.89,11943648
-1.36,-0.90,-0.06,-0.04,0.89,11947589
-1.37,-0.86,-0.09,-0.05,0.88,11951549
-1.38,-0.82,-0.09,-0.05,0.88,11955500
-1.40,-0.79,-0.09,-0.05,0.88,11959446
-1.42,-0.76,-0.07,-0.06,0.89,11963401
-1.44,-0.75,-0.02,-0.08,0.89,11967347
-1.46,-0.77,0.06,-0.07,0.89,11971291
-1.46,-0.80,0.12,-0.01,0.91,11975246
-1.44,-0.84,0.12,0.06,0.90,11979186
-1.39,-0.86,0.11,0.10,0.90,11983141
-1.35,-0.89,0.10,0.11,0.90,11987087
-1.31,-0.91,0.10,0.10,0.90,11991046
-1.28,-0.94,0.10,0.08,0.90,11994982
-1.26,-0.95,0.07,0.04,0.90,11998930
-1.25,-0.95,0.03,-0.01,0.89,12002888
-1.26,-0.93,-0.03,-0.06,0.89,12006829
-1.29,-0.89,-0.09,-0.09,0.88,12010784
-1.31,-0.83,-0.15,-0.10,0.88,12014732
-1.35,-0.77,-0.17,-0.11,0.88,12018683
-1.38,-0.71,-0.15,-0.11,0.88,12022645
-1.40,-0.67,-0.11,-0.08,0.88,12026591
-1.40,-0.65,-0.06,-0.04,0.89,12030555
-1.40,-0.64,-0.02,-0.01,0.89,12034493
-1.40,-0.64,-0.00,0.00,0.89,12038428
-1.39,-0.64,0.01,0.01,0.89,12042384
-1.38,-0.64,0.00,0.01,0.89,12046334
-1.37,-0.63,-0.01,0.01,0.89,12050285
-1.36,-0.63,-0.02,0.00,0.89,12054221
-1.35,-0.63,-0.01,-0.01,0.89,12058172
-1.35,-0.63,0.02,-0.03,0.89,12062132
-1.36,-0.64,0.04,-0.05,0.90,12066078
-1.37,-0.65,0.03,-0.06,0.90,12070031
-1.38,-0.66,0.02,-0.06,0.90,12073974
-1.39,-0.66,0.00,-0.05,0.89,12077912
-1.39,-0.66,-0.00,-0.03,0.89,12081865
-1.38,-0.66,-0.00,-0.00,0.89,12085806
-1.36,-0.66,-0.00,0.01,0.89,12089753
-1.35,-0.66,0.01,0.02,0.89,12093701
-1.33,-0.67,0.03,0.02,0.89,12097645
-1.32,-0.68,0.04,0.01,0.90,12101595
-1.31,-0.70,0.04,0.00,0.90,12105533
-1.30,-0.71,0.03,0.00,0.90,12109478
-1.29,-0.71,0.03,0.00,0.89,12113422
-1.29,-0.72,0.02,-0.01,0.90,12117371
-1.29,-0.72,0.02,-0.03,0.89,12121316
-1.30,-0.73,0.02,-0.04,0.90,12125262
-1.29,-0.73,0.03,-0.00,-1.00,12129208
-1.30,-0.75,0.05,-0.05,0.90,12133143
-1.31,-0.76,0.06,-0.05,0.90,12137106
-1.32,-0.78,0.06,-0.04,0.90,12141049
-1.32,-0.79,0.06,-0.03,0.90,12144991
-1.32,-0.81,0.06,-0.02,0.90,12148940
-1.32,-0.82,0.05,-0.02,0.90,12152877
-1.33,-0.84,0.06,-0.03,0.89,12156829
-1.33,-0.85,0.06,-0.03,0.90,12160766
-1.34,-0.86,0.06,-0.03,0.90,12164710
-1.34,-0.87,0.04,-0.03,0.90,12168667
-1.35,-0.87,0.02,-0.04,0.90,12172607
-1.37,-0.87,0.01,-0.06,0.89,12176564
-1.39,-0.87,0.02,-0.08,0.89,12180506
-1.41,-0.87,0.04,-0.07,0.90,12184449
-1.41,-0.88,0.05,-0.01,0.90,12188400
-1.39,-0.89,0.07,0.05,0.90,12192344
-1.35,-0.91,0.07,0.09,0.89,12196301
-1.31,-0.92,0.07,0.10,0.90,12200239
-1.28,-0.93,0.07,0.09,0.90,12204194
-1.25,-0.94,0.06,0.07,0.89,12208137
-1.24,-0.94,0.04,0.02,0.89,12212086
-1.24,-0.93,0.01,-0.03,0.89,12216046
-1.26,-0.92,-0.02,-0.08,0.89,12219994
-1.30,-0.89,-0.06,-0.12,0.89,12223953
-1.34,-0.85,-0.08,-0.14,0.89,12227900
-1.38,-0.81,-0.10,-0.15,0.89,12231849
-1.42,-0.77,-0.10,-0.13,0.88,12235813
-1.44,-0.74,-0.09,-0.10,0.89,12239762
-1.45,-0.71,-0.07,-0.05,0.89,12243718
-1.44,-0.68,-0.06,0.00,0.88,12247660
-1.42,-0.66,-0.06,0.04,0.88,12251605
-1.39,-0.64,-0.06,0.07,0.88,12255557
-1.35,-0.62,-0.06,0.08,0.88,12259509
-1.32,-0.60,-0.06,0.08,0.88,12263463
-1.29,-0.59,-0.05,0.06,0.88,12267411
-1.27,-0.58,-0.03,0.04,0.88,12271357
-1.26,-0.58,-0.01,0.01,0.89,12275310
-1.26,-0.58,0.00,-0.02,0.89,12279256
-1.26,-0.58,0.00,-0.05,0.89,12283208
-1.28,-0.58,-0.01,-0.06,0.89,12287156
-1.29,-0.58,-0.01,-0.06,0.89,12291109
-1.30,-0.59,0.01,-0.06,0.89,12295057
-1.30,-0.60,0.03,-0.04,0.89,12298996
-1.30,-0.62,0.06,-0.03,0.90,12302936
-1.30,-0.65,0.09,-0.01,0.90,12306875
-1.29,-0.69,0.11,0.00,0.90,12310817
-1.28,-0.73,0.13,0.01,0.90,12314769
-1.27,-0.76,0.13,0.00,0.90,12318713
-1.26,-0.80,0.12,0.00,0.90,12322658
-1.26,-0.83,0.10,-0.01,0.90,12326599
-1.26,-0.85,0.09,-0.03,0.90,12330549
-1.28,-0.87,0.09,-0.05,0.90,12334494
-1.29,-0.90,0.09,-0.07,0.90,12338432
-1.31,-0.91,0.08,-0.08,0.90,12342384
-1.34,-0.93,0.07,-0.08,0.90,12346326
-1.35,-0.93,0.05,-0.07,0.90,12350283
-1.37,-0.94,0.03,-0.06,0.90,12354225
-1.38,-0.93,0.02,-0.04,0.89,12358174
-1.38,-0.93,0.01,-0.02,0.89,12362134
-1.38,-0.92,0.01,-0.01,0.89,12366087
-1.37,-0.92,0.01,0.00,0.89,12370037
-1.37,-0.91,0.01,0.00,0.89,12373980
-1.36,-0.90,0.00,0.01,0.89,12377922
-1.35,-0.89,-0.00,0.01,0.90,12381874
-1.34,-0.88,-0.01,0.01,0.90,12385817
-1.33,-0.86,-0.02,-0.01,0.89,12389770
-1.33,-0.84,-0.04,-0.02,0.89,12393714
-1.34,-0.81,-0.05,-0.03,0.89,12397662
-1.34,-0.78,-0.05,-0.04,0.89,12401618
-1.34,-0.76,-0.06,-0.03,0.89,12405569
-1.35,-0.73,-0.06,-0.03,0.89,12409526
-1.34,-0.70,-0.06,-0.02,0.88,12413466
-1.34,-0.68,-0.07,-0.01,0.88,12417421
-1.33,-0.65,-0.08,0.00,0.88,12421373
-1.32,-0.62,-0.08,0.01,0.87,12425312
-1.31,-0.59,-0.09,0.02,0.87,12429256
-1.29,-0.56,-0.09,0.02,0.87,12433204
-1.28,-0.53,-0.08,0.02,0.89,12437151
-1.27,-0.52,-0.06,0.00,0.88,12441108
-1.27,-0.51,-0.03,-0.01,0.89,12445055
-1.27,-0.51,-0.01,-0.02,0.89,12449009
-1.28,-0.52,0.01,-0.03,0.89,12452952
-1.29,-0.53,0.03,-0.04,0.90,12456896
-1.30,-0.54,0.04,-0.05,0.90,12460844
-1.31,-0.56,0.05,-0.05,0.90,12464784
-1.31,-0.58,0.06,-0.05,0.90,12468737
-1.32,-0.60,0.06,-0.04,0.90,12472673
-1.32,-0.62,0.06,-0.04,0.90,12476622
-1.32,-0.64,0.05,-0.03,0.90,12480577
-1.32,-0.66,0.04,-0.03,0.90,12484516
-1.31,-0.66,0.02,-0.02,0.89,12488466
-1.31,-0.66,0.01,-0.02,0.89,12492408
-1.31,-0.66,-0.00,-0.01,0.89,12496359
-1.30,-0.66,-0.00,-0.01,0.89,12500306
-1.30,-0.67,0.01,-0.02,0.89,12504245
-1.30,-0.68,0.02,-0.02,0.89,12508202
-1.30,-0.69,0.04,-0.02,0.89,12512127
-1.31,-0.70,0.05,-0.03,0.90,12516077
-1.31,-0.72,0.06,-0.03,0.90,12520029
-1.31,-0.74,0.06,-0.03,0.90,12523966
-1.32,-0.76,0.06,-0.03,0.90,12527918
-1.32,-0.78,0.06,-0.03,0.90,12531863
-1.33,-0.79,0.06,-0.04,0.90,12535811
-1.33,-0.81,0.06,-0.04,0.90,12539758
-1.34,-0.83,0.06,-0.04,0.90,12543706
-1.34,-0.84,0.05,-0.04,0.90,12547655
-1.35,-0.84,0.04,-0.03,0.90,12551592
-1.35,-0.85,0.02,-0.03,0.89,12555541
-1.35,-0.85,0.02,-0.02,0.89,12559488
-1.35,-0.85,0.01,-0.02,0.89,12563433
-1.35,-0.85,0.02,-0.01,0.89,12567392
-1.35,-0.85,0.03,-0.01,0.89,12571338
-1.34,-0.86,0.04,-0.00,0.90,12575288
-1.34,-0.87,0.05,-0.00,0.90,12579228
-1.33,-0.88,0.05,-0.00,0.90,12583171
-1.33,-0.88,0.03,-0.00,0.89,12587129
-1.33,-0.88,0.01,-0.01,0.89,12591073
-1.32,-0.87,-0.01,-0.01,0.89,12595030
-1.32,-0.85,-0.03,-0.02,0.89,12598980
-1.32,-0.83,-0.04,-0.03,0.89,12602928
-1.33,-0.81,-0.05,-0.03,0.89,12606885
-1.33,-0.78,-0.06,-0.03,0.88,12610827
-1.33,-0.76,-0.06,-0.03,0.88,12614781
-1.34,-0.74,-0.06,-0.03,0.88,12618732
-1.34,-0.72,-0.06,-0.03,0.88,12622672
-1.34,-0.70,-0.05,-0.02,0.89,12626621
-1.34,-0.69,-0.03,-0.01,0.88,12630573
-1.33,-0.68,-0.01,-0.01,0.89,12634516
-1.33,-0.68,0.00,-0.01,0.89,12638466
-1.32,-0.69,0.01,-0.01,0.89,12642410
-1.31,-0.69,0.02,-0.01,0.89,12646373
-1.31,-0.70,0.02,-0.01,0.89,12650312
-1.30,-0.71,0.02,-0.01,0.89,12654260
-1.30,-0.71,0.02,-0.02,0.89,12658210
-1.30,-0.72,0.02,-0.02,0.89,12662150
-1.30,-0.72,0.02,-0.02,0.89,12666103
-1.30,-0.73,0.03,-0.03,0.89,12670050
-1.30,-0.74,0.03,-0.03,0.90,12674012
-1.31,-0.75,0.04,-0.04,0.90,12677954
-1.31,-0.77,0.04,-0.03,0.90,12681893
-1.31,-0.78,0.04,-0.03,0.90,12685849
-1.32,-0.79,0.05,-0.03,0.90,12689790
-1.32,-0.81,0.06,-0.03,0.90,12693742
-1.32,-0.83,0.06,-0.02,0.90,12697683
-1.32,-0.85,0.07,-0.02,0.90,12701630
-1.32,-0.87,0.07,-0.02,0.90,12705579
-1.32,-0.89,0.07,-0.02,0.90,12709514
-1.32,-0.90,0.07,-0.01,0.90,12713466
-1.32,-0.92,0.06,-0.01,0.90,12717411
-1.32,-0.93,0.06,-0.02,0.90,12721359
-1.32,-0.94,0.05,-0.02,0.90,12725308
-1.32,-0.94,0.04,-0.02,0.89,12729258
-1.32,-0.95,0.04,-0.03,0.90,12733206
-1.33,-0.95,0.03,-0.03,0.89,12737152
-1.33,-0.95,0.03,-0.03,0.90,12741104
-1.34,-0.95,0.02,-0.03,0.89,12745059
-1.35,-0.95,0.01,-0.03,0.89,12749011
-1.35,-0.94,0.01,-0.03,0.89,12752965
-1.35,-0.93,0.00,-0.03,0.89,12756910
-1.36,-0.92,-0.00,-0.02,0.89,12760859
-1.36,-0.92,-0.00,-0.02,0.89,12764808
-1.36,-0.91,-0.00,-0.01,0.89,12768748
-1.35,-0.90,-0.00,-0.01,0.89,12772695
-1.35,-0.89,-0.01,-0.01,0.89,12776640
-1.35,-0.88,-0.01,-0.01,0.89,12780594
-1.35,-0.86,-0.02,-0.01,0.89,12784554
-1.35,-0.85,-0.03,-0.02,0.89,12788498
-1.35,-0.83,-0.03,-0.02,0.89,12792451
-1.35,-0.81,-0.04,-0.02,0.89,12796399
-1.35,-0.79,-0.04,-0.02,0.89,12800346
-1.35,-0.78,-0.04,-0.02,0.89,12804300
-1.35,-0.76,-0.04,-0.02,0.89,12808240
-1.35,-0.74,-0.03,-0.02,0.89,12812202
-1.35,-0.73,-0.03,-0.02,0.89,12816155
-1.34,-0.72,-0.03,-0.02,0.89,12820100
-1.34,-0.71,-0.03,-0.01,0.89,12824056
-1.34,-0.70,-0.02,-0.01,0.89,12828003
-1.33,-0.69,-0.02,-0.01,0.89,12831951
-1.33,-0.69,-0.01,-0.01,0.89,12835905
-1.32,-0.68,-0.01,-0.01,0.89,12839851
-1.32,-0.68,-0.00,-0.01,0.89,12843809
-1.31,-0.68,0.00,-0.01,0.89,12847753
-1.31,-0.69,0.00,-0.02,0.89,12851705
-1.31,-0.69,0.00,-0.02,0.89,12855655
-1.31,-0.69,0.01,-0.02,0.89,12859599
-1.31,-0.70,0.01,-0.03,0.89,12863549
-1.31,-0.70,0.02,-0.03,0.89,12867497
-1.31,-0.71,0.03,-0.03,0.89,12871441
-1.31,-0.73,0.04,-0.03,0.90,12875385
-1.31,-0.74,0.05,-0.02,0.89,12879326
-1.31,-0.76,0.05,-0.02,0.90,12883275
-1.31,-0.78,0.06,-0.02,0.90,12887211
-1.31,-0.80,0.06,-0.02,0.90,12891167
-1.31,-0.81,0.06,-0.02,0.89,12895120
-1.31,-0.83,0.06,-0.02,0.89,12899070
-1.30,-0.85,0.06,-0.02,0.90,12903018
-1.30,-0.86,0.06,-0.02,0.90,12906951
-1.30,-0.88,0.06,-0.02,0.90,12910906
-1.31,-0.89,0.06,-0.02,0.90,12914846
-1.31,-0.91,0.06,-0.03,0.90,12918791
-1.31,-0.92,0.06,-0.03,0.90,12922742
-1.32,-0.93,0.06,-0.03,0.90,12926680
-1.32,-0.94,0.06,-0.03,0.90,12930629
-1.33,-0.95,0.05,-0.03,0.90,12934569
-1.33,-0.96,0.05,-0.03,0.90,12938516
-1.33,-0.97,0.04,-0.03,0.90,12942470
-1.34,-0.97,0.03,-0.03,0.89,12946412
-1.34,-0.97,0.02,-0.03,0.90,12950371
-1.35,-0.96,0.02,-0.03,0.89,12954314
-1.35,-0.96,0.01,-0.02,0.90,12958260
-1.35,-0.95,0.01,-0.02,0.89,12962222
-1.35,-0.95,0.01,-0.02,0.89,12966166
-1.35,-0.94,0.01,-0.02,0.89,12970126
-1.35,-0.93,-0.00,-0.02,0.89,12974072
-1.35,-0.92,-0.01,-0.02,0.89,12978022
-1.35,-0.91,-0.02,-0.02,0.89,12981981
-1.35,-0.89,-0.03,-0.02,0.89,12985922
-1.35,-0.87,-0.03,-0.02,0.89,12989877
-1.35,-0.85,-0.03,-0.02,0.89,12993820
-1.36,-0.84,-0.03,-0.02,0.89,12997772
-1.36,-0.82,-0.03,-0.02,0.89,13001726
-1.36,-0.80,-0.04,-0.02,0.89,13005662
-1.36,-0.78,-0.04,-0.02,0.89,13009616
-1.35,-0.77,-0.04,-0.01,0.89,13013561
-1.35,-0.75,-0.04,-0.01,0.89,13017506
-1.34,-0.74,-0.04,-0.01,0.89,13021462
-1.34,-0.72,-0.03,-0.01,0.89,13025410
-1.33,-0.71,-0.03,-0.01,0.89,13029366
-1.33,-0.70,-0.03,-0.01,0.89,13033311
-1.32,-0.69,-0.03,-0.01,0.89,13037254
-1.32,-0.68,-0.03,-0.01,0.89,13041212
-1.32,-0.68,-0.02,-0.02,0.89,13045159
-1.32,-0.67,-0.02,-0.02,0.89,13049107
-1.31,-0.67,-0.01,-0.02,0.89,13053066
-1.31,-0.66,-0.00,-0.02,0.89,13057010
-1.31,-0.67,0.01,-0.02,0.89,13060963
-1.31,-0.67,0.01,-0.02,0.89,13064907
-1.31,-0.68,0.02,-0.02,0.89,13068861
-1.30,-0.69,0.02,-0.02,0.89,13072811
-1.30,-0.70,0.03,-0.02,0.89,13076752
-1.30,-0.71,0.03,-0.02,0.89,13080698
-1.30,-0.72,0.03,-0.02,0.90,13084632
-1.30,-0.74,0.04,-0.02,0.90,13088571
-1.30,-0.75,0.05,-0.02,0.90,13092518
-1.30,-0.77,0.06,-0.02,0.90,13096458
-1.30,-0.79,0.07,-0.02,0.90,13100397
-1.30,-0.81,0.07,-0.03,0.90,13104339
-1.30,-0.84,0.07,-0.03,0.90,13108288
-1.30,-0.85,0.07,-0.03,0.90,13112225
-1.30,-0.87,0.07,-0.02,0.90,13116163
-1.30,-0.89,0.06,-0.02,0.90,13120119
-1.31,-0.91,0.06,-0.02,0.90,13124056
-1.31,-0.92,0.07,-0.03,0.90,13128014
-1.31,-0.94,0.07,-0.03,0.90,13131958
-1.31,-0.95,0.07,-0.03,0.90,13135902
-1.32,-0.97,0.07,-0.03,0.90,13139852
-1.32,-0.98,0.06,-0.03,0.90,13143793
-1.33,-0.99,0.05,-0.03,0.90,13147741
-1.33,-0.99,0.04,-0.03,0.90,13151680
-1.34,-0.99,0.03,-0.03,0.90,13155626
-1.34,-0.99,0.02,-0.03,0.90,13159579
-1.35,-0.98,0.01,-0.03,0.89,13163522
-1.35,-0.98,0.01,-0.03,0.89,13167478
-1.36,-0.97,0.01,-0.03,0.89,13171419
-1.36,-0.97,0.01,-0.02,0.90,13175361
-1.36,-0.96,0.01,-0.02,0.89,13179319
-1.36,-0.95,0.00,-0.01,0.90,13183257
-1.36,-0.94,-0.01,-0.01,0.89,13187221
-1.36,-0.92,-0.02,-0.02,0.89,13191170
-1.36,-0.90,-0.03,-0.02,0.89,13195112
-1.36,-0.88,-0.04,-0.02,0.89,13199073
-1.36,-0.86,-0.04,-0.02,0.89,13203019
-1.36,-0.84,-0.04,-0.02,0.89,13206971
-1.37,-0.82,-0.04,-0.02,0.89,13210919
-1.37,-0.80,-0.05,-0.02,0.89,13214865
-1.36,-0.77,-0.06,-0.01,0.89,13218816
-1.36,-0.75,-0.06,-0.01,0.88,13222761
-1.35,-0.73,-0.06,-0.00,0.89,13226712
-1.34,-0.71,-0.05,0.00,0.88,13230650
-1.33,-0.69,-0.04,0.00,0.89,13234595
-1.32,-0.68,-0.03,0.00,0.89,13238547
-1.32,-0.67,-0.02,-0.00,0.89,13242485
-1.31,-0.67,-0.02,-0.01,0.89,13246439
-1.31,-0.66,-0.02,-0.02,0.89,13250378
-1.31,-0.65,-0.02,-0.02,0.89,13254326
-1.30,-0.65,-0.02,-0.02,0.89,13258271
-1.30,-0.64,-0.02,-0.02,0.89,13262211
-1.30,-0.64,-0.00,-0.02,0.89,13266148
-1.30,-0.65,0.00,-0.03,0.89,13270096
-1.30,-0.65,0.01,-0.03,0.89,13274040
-1.30,-0.66,0.02,-0.03,0.89,13277989
-1.30,-0.67,0.03,-0.03,0.89,13281935
-1.30,-0.69,0.04,-0.02,0.90,13285887
-1.30,-0.71,0.06,-0.01,0.90,13289824
-1.29,-0.74,0.08,-0.01,0.90,13293762
-1.29,-0.77,0.10,-0.01,0.90,13297710
-1.29,-0.80,0.10,-0.01,0.90,13301643
-1.28,-0.83,0.11,-0.02,0.90,13305600
-1.29,-0.86,0.11,-0.02,0.90,13309548
-1.29,-0.89,0.09,-0.03,0.90,13313497
-1.29,-0.91,0.08,-0.04,0.90,13317447
-1.30,-0.92,0.06,-0.04,0.90,13321387
-1.31,-0.93,0.05,-0.04,0.90,13325340
-1.31,-0.94,0.04,-0.04,0.90,13329285
-1.32,-0.95,0.05,-0.05,0.90,13333233
-1.33,-0.95,0.05,-0.04,0.90,13337184
-1.34,-0.96,0.04,-0.04,0.89,13341135
-1.35,-0.96,0.04,-0.03,0.89,13345092
-1.35,-0.96,0.02,-0.03,0.89,13349036
-1.36,-0.96,0.01,-0.02,0.89,13352984
-1.36,-0.96,0.01,-0.02,0.89,13356947
-1.36,-0.95,0.02,-0.02,0.89,13360894
-1.36,-0.95,0.02,-0.02,0.89,13364846
-1.36,-0.95,0.02,-0.02,0.89,13368795
-1.36,-0.94,0.02,-0.01,0.89,13372743
-1.36,-0.93,0.00,-0.01,0.89,13376692
-1.36,-0.92,-0.02,-0.02,0.89,13380640
-1.36,-0.90,-0.04,-0.02,0.89,13384591
-1.36,-0.87,-0.05,-0.03,0.88,13388530
-1.36,-0.85,-0.06,-0.02,0.89,13392479
-1.36,-0.83,-0.05,-0.02,0.88,13396437
-1.36,-0.80,-0.05,-0.02,0.89,13400377
-1.36,-0.79,-0.04,-0.01,0.89,13404335
-1.35,-0.77,-0.04,-0.01,0.89,13408280
-1.35,-0.75,-0.04,-0.00,0.88,13412224
-1.34,-0.74,-0.04,0.00,0.89,13416174
-1.33,-0.72,-0.04,0.00,0.89,13420119
-1.32,-0.71,-0.03,-0.00,0.89,13424070
-1.32,-0.70,-0.02,-0.01,0.89,13428020
-1.31,-0.70,-0.01,-0.01,0.89,13431963
-1.31,-0.70,-0.00,-0.02,0.89,13435910
-1.31,-0.69,-0.00,-0.02,0.89,13439855
-1.31,-0.69,-0.01,-0.02,0.89,13443807
-1.30,-0.68,-0.02,-0.02,0.89,13447757
-1.30,-0.68,-0.02,-0.02,0.89,13451700
-1.30,-0.67,-0.02,-0.02,0.89,13455651
-1.30,-0.67,-0.01,-0.02,0.89,13459596
-1.30,-0.67,0.01,-0.02,0.89,13463543
-1.29,-0.69,0.03,-0.02,0.90,13467491
-1.29,-0.70,0.05,-0.02,0.89,13471430
-1.29,-0.72,0.05,-0.02,0.90,13475381
-1.29,-0.74,0.05,-0.02,0.90,13479319
-1.29,-0.75,0.05,-0.02,0.90,13483269
-1.29,-0.76,0.05,-0.02,0.90,13487210
-1.29,-0.78,0.05,-0.03,0.90,13491164
-1.29,-0.79,0.05,-0.04,0.90,13495110
-1.30,-0.81,0.06,-0.04,0.90,13499047
-1.31,-0.83,0.06,-0.04,0.90,13502998
-1.31,-0.84,0.06,-0.04,0.90,13506934
-1.32,-0.85,0.05,-0.04,0.90,13510876
-1.33,-0.86,0.04,-0.04,0.90,13514829
-1.33,-0.87,0.04,-0.04,0.90,13518764
-1.34,-0.88,0.04,-0.03,0.90,13522720
-1.34,-0.89,0.05,-0.03,0.90,13526657
-1.34,-0.91,0.06,-0.03,0.90,13530608
-1.35,-0.92,0.07,-0.02,0.90,13534561
-1.35,-0.94,0.07,-0.02,0.90,13538501
-1.35,-0.95,0.06,-0.02,0.90,13542447
-1.35,-0.96,0.05,-0.02,0.90,13546394
-1.35,-0.96,0.04,-0.02,0.90,13550340
-1.35,-0.96,0.02,-0.02,0.89,13554303
-1.35,-0.95,0.02,-0.02,0.90,13558245
-1.35,-0.95,0.01,-0.02,0.89,13562207
-1.35,-0.94,0.01,-0.02,0.89,13566158
-1.35,-0.93,-0.00,-0.03,0.89,13570109
-1.36,-0.91,-0.01,-0.02,0.89,13574070
-1.36,-0.90,-0.03,-0.02,0.89,13578013
-1.36,-0.87,-0.04,-0.01,0.89,13581974
-1.35,-0.85,-0.05,-0.01,0.89,13585917
-1.35,-0.83,-0.04,-0.00,0.89,13589863
-1.34,-0.81,-0.04,0.00,0.89,13593818
-1.33,-0.80,-0.03,0.00,0.89,13597758
-1.32,-0.78,-0.02,0.00,0.89,13601708
-1.32,-0.77,-0.02,-0.00,0.89,13605652
-1.31,-0.76,-0.03,-0.00,0.89,13609601
-1.30,-0.74,-0.04,-0.00,0.89,13613548
-1.30,-0.72,-0.05,-0.01,0.89,13617489
-1.30,-0.70,-0.05,-0.01,0.89,13621442
-1.30,-0.69,-0.04,-0.02,0.89,13625384
-1.30,-0.67,-0.03,-0.03,0.89,13629328
-1.30,-0.67,-0.02,-0.03,0.89,13633278
-1.30,-0.66,-0.01,-0.03,0.89,13637223
-1.30,-0.66,-0.00,-0.03,0.89,13641176
-1.30,-0.66,-0.00,-0.02,0.89,13645112
-1.30,-0.66,0.00,-0.02,0.89,13649051
-1.30,-0.66,0.01,-0.03,0.89,13653006
-1.30,-0.67,0.02,-0.03,0.89,13656948
-1.30,-0.68,0.03,-0.03,0.90,13660900
-1.30,-0.70,0.04,-0.03,0.90,13664832
-1.31,-0.72,0.05,-0.03,0.90,13668779
-1.31,-0.74,0.06,-0.03,0.90,13672729
-1.31,-0.75,0.06,-0.03,0.90,13676663
-1.32,-0.77,0.05,-0.04,0.90,13680614
-1.32,-0.79,0.05,-0.04,0.90,13684552
-1.33,-0.80,0.05,-0.04,0.90,13688499
-1.33,-0.82,0.06,-0.04,0.90,13692452
-1.34,-0.84,0.07,-0.04,0.90,13696392
-1.34,-0.86,0.07,-0.03,0.90,13700347
-1.35,-0.88,0.07,-0.03,0.89,13704296
-1.35,-0.89,0.07,-0.02,0.90,13708248
-1.35,-0.91,0.06,-0.02,0.89,13712208
-1.35,-0.92,0.06,-0.02,0.90,13716150
-1.34,-0.93,0.05,-0.01,0.89,13720112
-1.34,-0.94,0.05,-0.01,0.90,13724052
-1.34,-0.95,0.05,-0.01,0.89,13728004
-1.33,-0.95,0.04,-0.01,0.89,13731960
-1.33,-0.96,0.03,-0.01,0.89,13735907
-1.33,-0.95,0.02,-0.01,0.89,13739865
-1.33,-0.95,0.01,-0.01,0.89,13743810
-1.33,-0.93,-0.01,-0.02,0.89,13747766
-1.33,-0.92,-0.01,-0.02,0.89,13751721
-1.33,-0.91,-0.02,-0.02,0.89,13755669
-1.33,-0.89,-0.02,-0.02,0.89,13759628
-1.33,-0.88,-0.01,-0.02,0.89,13763576
-1.33,-0.87,-0.02,-0.01,0.89,13767530
-1.32,-0.85,-0.02,-0.01,0.89,13771487
-1.32,-0.84,-0.03,-0.01,0.89,13775432
-1.32,-0.82,-0.03,-0.01,0.89,13779390
-1.31,-0.80,-0.03,-0.01,0.89,13783327
-1.31,-0.79,-0.03,-0.01,0.89,13787281
-1.31,-0.78,-0.02,-0.01,0.89,13791239
-1.30,-0.77,-0.02,-0.02,0.89,13795175
-1.30,-0.76,-0.01,-0.02,0.89,13799126
-1.31,-0.75,-0.02,-0.03,0.89,13803075
-1.31,-0.74,-0.02,-0.03,0.89,13807027
-1.31,-0.73,-0.02,-0.03,0.89,13810982
-1.32,-0.72,-0.02,-0.04,0.89,13814929
-1.32,-0.72,-0.01,-0.04,0.89,13818880
-1.33,-0.71,0.00,-0.04,0.89,13822605
-1.33,-0.72,0.01,-0.04,0.89,13826550
-1.34,-0.72,0.02,-0.03,0.89,13830504
-1.34,-0.73,0.02,-0.03,0.89,13834450
-1.34,-0.74,0.02,-0.03,0.89,13838407
-1.34,-0.74,0.02,-0.03,0.90,13842349
-1.34,-0.75,0.02,-0.03,0.89,13846301
-1.34,-0.76,0.03,-0.02,0.90,13850255
-1.34,-0.77,0.03,-0.02,0.89,13854196
-1.34,-0.78,0.04,-0.02,0.90,13858155
-1.34,-0.79,0.04,-0.02,0.89,13862106
-1.34,-0.80,0.04,-0.02,0.90,13866054
-1.34,-0.81,0.03,-0.02,0.89,13870015
-1.34,-0.82,0.03,-0.02,0.90,13873954
-1.34,-0.82,0.03,-0.02,0.89,13877911
-1.34,-0.83,0.03,-0.02,0.90,13881853
-1.34,-0.84,0.03,-0.01,0.89,13885807
-1.33,-0.84,0.04,-0.01,0.89,13889764
-1.33,-0.85,0.04,-0.01,0.89,13893709
-1.32,-0.86,0.03,-0.01,0.89,13897671
-1.32,-0.86,0.03,-0.01,0.90,13901611
-1.31,-0.86,0.02,-0.00,0.89,13905559
-1.31,-0.86,0.02,-0.00,0.90,13909506
-1.30,-0.86,0.02,-0.00,0.89,13913446
-1.30,-0.86,0.02,-0.00,0.90,13917401
-1.29,-0.86,0.01,-0.01,0.89,13921352
-1.29,-0.86,0.01,-0.01,0.89,13925304
-1.29,-0.85,0.00,-0.02,0.89,13929251
-1.29,-0.85,-0.00,-0.02,0.89,13933200
-1.29,-0.84,-0.00,-0.02,0.89,13937158
-1.30,-0.84,0.00,-0.03,0.89,13940868
-1.30,-0.83,0.01,-0.03,0.89,13944810
-1.30,-0.83,0.02,-0.03,0.89,13948754
-1.31,-0.83,0.02,-0.03,0.89,13952706
-1.31,-0.84,0.02,-0.03,0.89,13956661
-1.32,-0.84,0.02,-0.03,0.89,13960603
-1.32,-0.84,0.02,-0.03,0.89,13964551
-1.32,-0.84,0.02,-0.03,0.90,13968498
-1.33,-0.84,0.02,-0.03,0.89,13972450
-1.33,-0.84,0.02,-0.03,0.89,13976407
-1.34,-0.84,0.02,-0.03,0.89,13980350
-1.34,-0.84,0.02,-0.03,0.89,13984306
-1.34,-0.85,0.02,-0.03,0.89,13988250
-1.35,-0.84,0.01,-0.03,0.90,13992205
-1.35,-0.84,0.01,-0.03,0.89,13996163
-1.36,-0.84,0.01,-0.03,0.90,14000111
-1.36,-0.84,0.01,-0.02,0.89,14004070
-1.36,-0.84,0.01,-0.02,0.90,14008015
-1.36,-0.84,0.01,-0.02,0.89,14011968
-1.35,-0.84,0.01,-0.01,0.90,14015924
-1.35,-0.83,0.01,-0.01,0.89,14019876
-1.35,-0.83,0.01,-0.01,0.90,14023834
-1.34,-0.83,0.00,-0.01,0.89,14027777
-1.34,-0.82,-0.00,-0.00,0.89,14031720
-1.33,-0.82,-0.01,-0.00,0.89,14035678
-1.32,-0.81,-0.01,-0.00,0.89,14039616
-1.32,-0.80,-0.01,-0.00,0.89,14043565
-1.31,-0.79,-0.01,-0.01,0.89,14047505
-1.31,-0.78,-0.01,-0.01,0.89,14051454
-1.30,-0.78,-0.01,-0.01,0.89,14055409
-1.29,-0.77,-0.01,-0.01,0.89,14059353
-1.29,-0.77,-0.01,-0.01,0.89,14063307
-1.28,-0.76,-0.01,-0.01,0.89,14067259
-1.28,-0.76,-0.01,-0.01,0.89,14071209
-1.28,-0.75,-0.00,-0.01,0.89,14075168
-1.27,-0.75,0.00,-0.02,0.89,14079111
-1.27,-0.75,0.01,-0.02,0.89,14083060
-1.27,-0.76,0.02,-0.02,0.89,14087011
-1.27,-0.76,0.03,-0.03,0.90,14090957
-1.28,-0.77,0.03,-0.03,0.89,14094915
-1.28,-0.78,0.03,-0.03,0.89,14098860
-1.29,-0.79,0.03,-0.04,0.89,14102813
-1.29,-0.79,0.03,-0.04,0.89,14106758
-1.30,-0.80,0.03,-0.04,0.89,14110697
-1.31,-0.81,0.04,-0.04,0.90,14114650
-1.31,-0.82,0.05,-0.04,0.90,14118594
-1.32,-0.84,0.05,-0.04,0.90,14122548
-1.33,-0.85,0.06,-0.04,0.90,14126490
-1.33,-0.87,0.05,-0.04,0.90,14130440
-1.34,-0.88,0.05,-0.04,0.90,14134397
-1.34,-0.89,0.05,-0.03,0.90,14138338
-1.34,-0.90,0.05,-0.03,0.90,14142288
-1.35,-0.91,0.05,-0.03,0.90,14146234
-1.35,-0.92,0.04,-0.02,0.90,14150182
-1.35,-0.92,0.04,-0.02,0.89,14154138
-1.35,-0.93,0.03,-0.02,0.90,14158092
-1.35,-0.93,0.02,-0.01,0.89,14162044
-1.34,-0.93,0.02,-0.01,0.90,14165989
-1.34,-0.92,0.01,-0.01,0.89,14169941
-1.34,-0.92,0.00,-0.01,0.89,14173896
-1.33,-0.91,-0.00,-0.00,0.89,14177834
-1.33,-0.90,-0.01,-0.00,0.89,14181784
-1.32,-0.89,-0.01,-0.00,0.89,14185727
-1.32,-0.87,-0.01,-0.00,0.89,14189676
-1.31,-0.86,-0.02,-0.00,0.89,14193626
-1.31,-0.85,-0.02,-0.00,0.89,14197568
-1.30,-0.84,-0.02,-0.00,0.89,14201518
-1.29,-0.82,-0.02,-0.00,0.89,14205460
-1.29,-0.81,-0.03,-0.00,0.89,14209409
-1.28,-0.79,-0.03,-0.01,0.89,14213367
-1.28,-0.78,-0.03,-0.01,0.89,14217316
-1.28,-0.76,-0.03,-0.02,0.89,14221266
-1.28,-0.75,-0.03,-0.02,0.89,14225216
-1.28,-0.74,-0.02,-0.02,0.89,14229172
-1.28,-0.74,-0.01,-0.02,0.89,14233137
-1.28,-0.73,-0.01,-0.02,0.89,14237079
-1.29,-0.73,-0.00,-0.03,0.89,14241026
-1.29,-0.73,0.00,-0.04,0.89,14244977
-1.30,-0.73,0.01,-0.04,0.89,14248915
-1.30,-0.73,0.01,-0.04,0.89,14252867
-1.31,-0.74,0.02,-0.04,0.89,14256813
-1.32,-0.75,0.03,-0.04,0.89,14260773
-1.32,-0.76,0.03,-0.04,0.89,14264713
-1.32,-0.77,0.04,-0.04,0.90,14268652
-1.33,-0.78,0.04,-0.04,0.90,14272609
-1.34,-0.79,0.05,-0.04,0.90,14276551
-1.34,-0.81,0.05,-0.04,0.90,14280503
-1.34,-0.82,0.04,-0.03,0.90,14284443
-1.34,-0.83,0.04,-0.02,0.90,14288390
-1.34,-0.84,0.04,-0.02,0.90,14292344
-1.34,-0.85,0.04,-0.01,0.90,14296289
-1.34,-0.86,0.04,-0.01,0.90,14300242
-1.33,-0.87,0.04,-0.02,0.90,14304193
-1.33,-0.87,0.04,-0.01,0.90,14308143
-1.33,-0.88,0.03,-0.01,0.89,14312102
-1.32,-0.88,0.03,-0.00,0.90,14316042
-1.32,-0.89,0.02,0.00,0.89,14319998
-1.31,-0.89,0.02,0.00,0.89,14323714
-1.30,-0.88,0.02,-0.00,0.89,14327660
-1.30,-0.88,0.01,-0.01,0.89,14331608
-1.30,-0.88,0.01,-0.01,0.89,14335550
-1.29,-0.88,0.01,-0.01,0.89,14339506
-1.29,-0.87,0.01,-0.00,0.89,14343447
-1.28,-0.87,-0.00,-0.00,0.89,14347385
-1.28,-0.86,-0.01,-0.01,0.89,14351336
-1.28,-0.85,-0.02,-0.02,0.89,14355288
-1.28,-0.84,-0.02,-0.03,0.89,14359242
-1.28,-0.83,-0.01,-0.03,0.89,14363188
-1.29,-0.82,0.00,-0.03,0.90,14367136
-1.29,-0.82,0.01,-0.03,0.89,14371087
-1.29,-0.82,0.01,-0.03,0.89,14375044
-1.30,-0.82,0.01,-0.04,0.89,14379001
-1.31,-0.82,0.01,-0.05,0.90,14382944
-1.32,-0.82,0.01,-0.05,0.89,14386897
-1.33,-0.82,0.01,-0.05,0.89,14390854
-1.33,-0.82,0.01,-0.04,0.89,14394804
-1.34,-0.82,0.02,-0.03,0.89,14398762
-1.34,-0.82,0.02,-0.03,0.89,14402708
-1.35,-0.83,0.03,-0.04,0.89,14406655
-1.36,-0.83,0.03,-0.04,0.89,14410608
-1.36,-0.83,0.02,-0.04,0.89,14414555
-1.37,-0.83,0.02,-0.03,0.89,14418512
-1.37,-0.83,0.01,-0.02,0.89,14422458
-1.36,-0.83,0.01,-0.01,0.89,14426410
-1.36,-0.83,0.01,-0.01,0.89,14430360
-1.35,-0.83,0.01,-0.01,0.89,14434304
-1.35,-0.83,0.01,-0.01,0.89,14438260
-1.35,-0.83,0.01,-0.01,0.90,14442207
-1.34,-0.83,0.01,-0.01,0.89,14446167
-1.33,-0.83,0.00,0.00,0.89,14450104
-1.33,-0.82,-0.00,0.01,0.89,14454045
-1.32,-0.81,-0.01,0.01,0.89,14458002
-1.31,-0.81,-0.01,-0.00,0.89,14461944
-1.30,-0.80,-0.01,-0.01,0.89,14465898
-1.30,-0.80,-0.00,-0.01,0.89,14469832
-1.29,-0.79,0.00,-0.01,0.89,14473785
-1.29,-0.79,0.00,-0.00,0.89,14477737
-1.28,-0.79,-0.00,0.00,0.89,14481673
-1.27,-0.78,-0.01,-0.01,0.89,14485629
-1.27,-0.77,-0.02,-0.01,0.89,14489577
-1.27,-0.76,-0.01,-0.02,0.89,14493525
-1.28,-0.76,-0.00,-0.03,0.89,14497478
-1.28,-0.76,0.01,-0.03,0.89,14501424
-1.28,-0.77,0.03,-0.03,0.89,14505380
-1.29,-0.78,0.04,-0.03,0.90,14509323
-1.29,-0.79,0.04,-0.04,0.90,14513274
-1.30,-0.79,0.03,-0.05,0.90,14517230
-1.31,-0.80,0.03,-0.06,0.89,14521177
-1.32,-0.81,0.03,-0.05,0.90,14525137
-1.33,-0.81,0.03,-0.04,0.89,14529071
-1.34,-0.83,0.04,-0.04,0.90,14533025
-1.34,-0.84,0.05,-0.03,0.89,14536982
-1.35,-0.86,0.06,-0.04,0.90,14540928
-1.36,-0.87,0.06,-0.04,0.90,14544876
-1.36,-0.88,0.05,-0.04,0.90,14548814
-1.36,-0.88,0.04,-0.03,0.89,14552768
-1.36,-0.89,0.03,-0.01,0.89,14556728
-1.36,-0.89,0.02,-0.00,0.89,14560677
-1.35,-0.89,0.02,-0.00,0.89,14564632
-1.35,-0.89,0.02,-0.01,0.89,14568578
-1.35,-0.89,0.02,-0.01,0.89,14572529
-1.34,-0.90,0.03,-0.01,0.90,14576476
-1.34,-0.90,0.02,-0.01,0.89,14580427
-1.33,-0.89,0.01,0.00,0.89,14584374
-1.32,-0.88,-0.01,0.01,0.89,14588313
-1.31,-0.87,-0.02,0.00,0.89,14592272
-1.31,-0.85,-0.02,-0.00,0.89,14596223
-1.30,-0.84,-0.02,-0.01,0.89,14600165
-1.30,-0.83,-0.01,-0.01,0.89,14604126
-1.29,-0.82,-0.01,-0.00,0.89,14608071
-1.29,-0.81,-0.02,-0.00,0.89,14612021
-1.28,-0.80,-0.02,-0.00,0.89,14615975
-1.28,-0.78,-0.03,-0.01,0.89,14619919
-1.28,-0.77,-0.04,-0.02,0.89,14623875
-1.28,-0.75,-0.03,-0.03,0.89,14627821
-1.28,-0.74,-0.02,-0.03,0.89,14631768
-1.29,-0.74,0.00,-0.03,0.89,14635718
-1.29,-0.74,0.01,-0.03,0.89,14639662
-1.30,-0.75,0.02,-0.04,0.89,14643617
-1.31,-0.75,0.02,-0.05,0.89,14647561
-1.32,-0.75,0.01,-0.05,0.89,14651513
-1.33,-0.75,0.01,-0.05,0.89,14655470
-1.34,-0.75,0.01,-0.04,0.89,14659415
-1.34,-0.76,0.02,-0.04,0.89,14663364
-1.35,-0.76,0.03,-0.04,0.90,14667304
-1.35,-0.78,0.05,-0.04,0.90,14671245
-1.36,-0.79,0.05,-0.04,0.90,14675192
-1.36,-0.81,0.05,-0.04,0.90,14679141
-1.37,-0.82,0.04,-0.03,0.90,14683096
-1.36,-0.82,0.03,-0.02,0.89,14687043
-1.36,-0.83,0.02,-0.00,0.89,14690994
-1.35,-0.83,0.02,0.00,0.89,14694934
-1.34,-0.83,0.02,-0.00,0.89,14698877
-1.34,-0.84,0.03,-0.01,0.89,14702828
-1.33,-0.85,0.04,-0.01,0.90,14706769
-1.33,-0.85,0.04,-0.00,0.89,14710727
-1.32,-0.86,0.03,0.01,0.89,14714668
-1.31,-0.86,0.01,0.01,0.89,14718611
-1.30,-0.85,0.00,0.01,0.89,14722563
-1.29,-0.84,-0.00,-0.00,0.89,14726504
-1.29,-0.84,0.00,-0.01,0.89,14730456
-1.28,-0.84,0.01,-0.01,0.89,14734403
-1.28,-0.83,0.01,-0.01,0.89,14738352
-1.28,-0.83,0.01,-0.01,0.89,14742306
-1.27,-0.83,-0.00,-0.01,0.89,14746249
-1.27,-0.82,-0.01,-0.02,0.89,14750206
-1.27,-0.81,-0.01,-0.02,0.89,14754155
-1.28,-0.80,-0.01,-0.03,0.89,14758106
-1.28,-0.80,0.00,-0.03,0.89,14762059
-1.29,-0.80,0.02,-0.03,0.90,14765995
-1.29,-0.80,0.03,-0.04,0.89,14769953
-1.30,-0.81,0.03,-0.05,0.90,14773890
-1.32,-0.82,0.03,-0.05,0.89,14777841
-1.33,-0.82,0.02,-0.05,0.90,14781792
-1.34,-0.82,0.01,-0.05,0.89,14785741
-1.35,-0.82,0.01,-0.04,0.89,14789700
-1.35,-0.82,0.02,-0.04,0.89,14793652
-1.36,-0.83,0.03,-0.04,0.90,14797599
-1.36,-0.84,0.04,-0.04,0.90,14801537
-1.37,-0.85,0.04,-0.04,0.90,14805487
-1.37,-0.86,0.04,-0.03,0.90,14809436
-1.37,-0.86,0.03,-0.02,0.89,14813386
-1.37,-0.86,0.01,-0.01,0.89,14817332
-1.36,-0.85,-0.00,-0.00,0.89,14821269
-1.35,-0.85,-0.00,0.00,0.89,14825213
-1.35,-0.84,-0.00,0.00,0.89,14829163
-1.34,-0.84,0.01,-0.00,0.90,14833101
-1.33,-0.84,0.01,0.00,0.89,14837055
-1.32,-0.84,0.01,0.00,0.89,14840996
-1.31,-0.83,0.00,0.01,0.89,14844941
-1.30,-0.82,-0.01,0.01,0.89,14848894
-1.29,-0.81,-0.02,0.00,0.89,14852832
-1.29,-0.80,-0.02,0.00,0.89,14856785
-1.28,-0.79,-0.01,-0.00,0.89,14860723
-1.27,-0.78,-0.01,-0.00,0.89,14864669
-1.27,-0.78,-0.00,-0.01,0.89,14868620
-1.27,-0.77,-0.01,-0.01,0.89,14872565
-1.27,-0.77,-0.01,-0.02,0.89,14876526
-1.27,-0.76,-0.01,-0.03,0.89,14880473
-1.27,-0.75,-0.01,-0.03,0.89,14884421
-1.28,-0.75,-0.00,-0.03,0.89,14888377
-1.28,-0.75,0.01,-0.04,0.89,14892326
-1.29,-0.76,0.02,-0.05,0.89,14896286
-1.30,-0.77,0.03,-0.05,0.90,14900225
-1.31,-0.78,0.04,-0.06,0.90,14904173
-1.33,-0.78,0.04,-0.06,0.90,14908133
-1.34,-0.79,0.03,-0.05,0.89,14912083
-1.34,-0.80,0.03,-0.05,0.90,14916035
-1.35,-0.81,0.03,-0.04,0.89,14919979
-1.36,-0.82,0.04,-0.04,0.90,14923931
-1.36,-0.84,0.05,-0.04,0.90,14927889
-1.37,-0.85,0.06,-0.04,0.90,14931833
-1.37,-0.86,0.06,-0.03,0.90,14935776
-1.37,-0.87,0.05,-0.02,0.90,14939716
-1.37,-0.88,0.04,-0.01,0.89,14943666
-1.36,-0.88,0.02,-0.00,0.89,14947617
-1.35,-0.88,0.02,-0.00,0.89,14951558
-1.35,-0.88,0.01,0.00,0.89,14955511
-1.34,-0.88,0.02,0.00,0.89,14959450
-1.33,-0.88,0.02,0.01,0.89,14963398
-1.32,-0.88,0.01,0.01,0.89,14967348
-1.31,-0.87,0.01,0.01,0.89,14971288
-1.30,-0.87,-0.00,0.00,0.89,14975238
-1.30,-0.86,-0.01,0.00,0.89,14979181
-1.29,-0.85,-0.01,-0.00,0.89,14983141
-1.29,-0.84,-0.01,-0.00,0.89,14987086
-1.28,-0.83,-0.01,-0.00,0.89,14991038
-1.28,-0.82,-0.01,-0.01,0.89,14994993
-1.28,-0.81,-0.01,-0.02,0.89,14998934
-1.28,-0.80,-0.01,-0.03,0.89,15002880
-1.28,-0.79,-0.01,-0.03,0.89,15006844
-1.29,-0.79,-0.01,-0.03,0.89,15010790
-1.29,-0.78,-0.01,-0.03,0.89,15014744
-1.30,-0.78,-0.00,-0.04,0.89,15018681
-1.31,-0.78,0.01,-0.05,0.89,15022628
-1.32,-0.78,0.02,-0.05,0.90,15026580
-1.33,-0.78,0.02,-0.06,0.89,15030518
-1.34,-0.79,0.02,-0.05,0.89,15034469
-1.35,-0.79,0.02,-0.05,0.89,15038416
-1.36,-0.79,0.02,-0.05,0.90,15042365
-1.37,-0.80,0.02,-0.04,0.89,15046311
-1.37,-0.80,0.02,-0.04,0.90,15050243
-1.38,-0.81,0.03,-0.04,0.89,15054200
-1.38,-0.82,0.04,-0.03,0.90,15058148
-1.38,-0.83,0.04,-0.02,0.89,15062114
-1.37,-0.83,0.03,-0.01,0.89,15066055
-1.37,-0.83,0.02,-0.00,0.89,15070004
-1.36,-0.83,0.01,0.00,0.89,15073957
-1.35,-0.83,0.01,0.00,0.89,15077902
-1.34,-0.83,0.01,0.01,0.89,15081862
-1.33,-0.83,0.01,0.01,0.89,15085810
-1.32,-0.83,0.01,0.01,0.89,15089763
-1.31,-0.83,0.01,0.01,0.89,15093721
-1.30,-0.82,0.01,0.00,0.89,15097658
-1.29,-0.82,0.00,0.00,0.89,15101600
-1.28,-0.81,-0.00,-0.00,0.89,15105539
-1.28,-0.81,-0.01,-0.00,0.89,15109482
-1.27,-0.80,-0.01,-0.01,0.89,15113425
-1.27,-0.79,-0.00,-0.01,0.89,15117374
-1.27,-0.79,-0.00,-0.02,0.89,15121326
-1.27,-0.79,0.01,-0.03,0.89,15125274
-1.28,-0.79,0.01,-0.03,0.89,15129222
-1.28,-0.79,0.01,-0.04,0.90,15133171
-1.29,-0.79,0.01,-0.04,0.89,15137126
-1.30,-0.79,0.02,-0.04,0.90,15141079
-1.31,-0.79,0.02,-0.05,0.89,15145028
-1.32,-0.80,0.03,-0.05,0.90,15148953
-1.33,-0.80,0.03,-0.06,0.89,15152897
-1.34,-0.81,0.03,-0.05,0.90,15156839
-1.35,-0.82,0.04,-0.05,0.89,15160793
-1.36,-0.83,0.04,-0.05,0.90,15164735
-1.37,-0.84,0.04,-0.05,0.89,15168693
-1.37,-0.84,0.04,-0.04,0.90,15172634
-1.38,-0.85,0.04,-0.04,0.89,15176588
-1.38,-0.86,0.04,-0.02,0.89,15180538
-1.38,-0.86,0.03,-0.01,0.89,15184479
-1.37,-0.87,0.03,-0.01,0.89,15188439
-1.37,-0.87,0.02,-0.00,0.89,15192376
-1.36,-0.87,0.02,0.00,0.89,15196323
-1.35,-0.87,0.01,0.01,0.89,15200277
-1.34,-0.86,0.01,0.01,0.89,15204225
-1.33,-0.86,-0.00,0.02,0.89,15208178
-1.31,-0.85,-0.00,0.02,0.89,15212120
-1.30,-0.84,-0.01,0.01,0.89,15216071
-1.29,-0.83,-0.01,0.01,0.89,15220022
-1.29,-0.82,-0.01,0.00,0.89,15223965
-1.28,-0.81,-0.02,0.00,0.89,15227908
-1.27,-0.80,-0.02,-0.00,0.89,15231850
-1.27,-0.79,-0.02,-0.01,0.89,15235803
-1.27,-0.78,-0.02,-0.02,0.89,15239760
-1.27,-0.77,-0.01,-0.02,0.89,15243710
-1.27,-0.77,-0.01,-0.03,0.89,15247669
-1.28,-0.76,-0.00,-0.03,0.89,15251612
-1.28,-0.76,0.00,-0.04,0.89,15255563
-1.29,-0.76,0.01,-0.04,0.89,15259521
-1.30,-0.76,0.01,-0.05,0.89,15263460
-1.31,-0.77,0.02,-0.06,0.90,15267415
-1.33,-0.77,0.02,-0.06,0.89,15271354
-1.34,-0.78,0.02,-0.05,0.90,15275306
-1.35,-0.78,0.03,-0.05,0.89,15279261
-1.36,-0.79,0.03,-0.05,0.90,15283208
-1.36,-0.80,0.03,-0.05,0.89,15287154
-1.37,-0.81,0.04,-0.05,0.90,15291097
-1.38,-0.82,0.04,-0.04,0.89,15295051
-1.38,-0.83,0.04,-0.03,0.90,15298999
-1.38,-0.84,0.04,-0.02,0.89,15302944
-1.38,-0.85,0.04,-0.01,0.90,15306896
-1.37,-0.85,0.03,-0.00,0.89,15310835
-1.36,-0.85,0.02,0.00,0.89,15314786
-1.35,-0.86,0.02,0.01,0.89,15318730
-1.34,-0.86,0.02,0.01,0.89,15322689
-1.33,-0.86,0.02,0.02,0.89,15326650
-1.32,-0.86,0.01,0.02,0.89,15330595
-1.30,-0.85,0.01,0.02,0.89,15334544
-1.29,-0.85,0.00,0.01,0.89,15338482
-1.28,-0.84,-0.00,0.01,0.89,15342424
-1.28,-0.84,-0.01,0.00,0.89,15346364
-1.27,-0.83,-0.01,-0.00,0.89,15350310
-1.27,-0.82,-0.01,-0.01,0.89,15354269
-1.26,-0.82,-0.01,-0.01,0.89,15358215
-1.27,-0.81,-0.00,-0.02,0.89,15362161
-1.27,-0.81,0.00,-0.03,0.89,15366113
-1.28,-0.80,0.00,-0.04,0.89,15370055
-1.28,-0.80,0.01,-0.04,0.89,15374013
-1.29,-0.80,0.01,-0.04,0.89,15377956
-1.30,-0.80,0.01,-0.05,0.89,15381901
-1.31,-0.80,0.02,-0.06,0.89,15385854
-1.33,-0.81,0.02,-0.06,0.90,15389798
-1.34,-0.81,0.03,-0.06,0.89,15393756
-1.35,-0.82,0.03,-0.05,0.89,15397701
-1.36,-0.82,0.03,-0.05,0.89,15401654
-1.37,-0.83,0.03,-0.05,0.89,15405604
-1.38,-0.84,0.03,-0.05,0.90,15409544
-1.38,-0.84,0.03,-0.04,0.89,15413500
-1.39,-0.85,0.04,-0.03,0.90,15417442
-1.39,-0.86,0.03,-0.02,0.89,15421392
-1.38,-0.86,0.03,-0.01,0.89,15425337
-1.38,-0.86,0.02,-0.00,0.89,15429286
-1.37,-0.86,0.01,0.00,0.89,15433013
-1.36,-0.86,0.00,0.00,0.89,15436949
-1.35,-0.85,0.00,0.01,0.89,15440901
-1.33,-0.85,0.00,0.02,0.89,15444839
-1.32,-0.84,-0.00,0.02,0.89,15448777
-1.31,-0.84,0.00,0.02,0.89,15452727
-1.29,-0.83,-0.00,0.01,0.89,15456663
-1.29,-0.83,-0.00,0.01,0.89,15460618
-1.28,-0.82,-0.01,0.00,0.89,15464564
-1.27,-0.81,-0.01,-0.00,0.89,15468509
-1.27,-0.80,-0.02,-0.01,0.89,15472459
-1.27,-0.79,-0.02,-0.02,0.89,15476408
-1.27,-0.78,-0.01,-0.03,0.89,15480363
-1.27,-0.77,-0.01,-0.03,0.89,15484303
-1.28,-0.77,-0.00,-0.04,0.89,15488249
-1.28,-0.77,0.01,-0.04,0.90,15492204
-1.29,-0.77,0.01,-0.05,0.89,15496155
-1.31,-0.78,0.02,-0.05,0.90,15500107
-1.32,-0.78,0.02,-0.06,0.89,15504048
-1.33,-0.79,0.03,-0.06,0.90,15507996
-1.34,-0.79,0.03,-0.06,0.89,15511952
-1.35,-0.80,0.03,-0.05,0.90,15515893
-1.36,-0.81,0.03,-0.05,0.89,15519843
-1.37,-0.82,0.04,-0.05,0.90,15523792
-1.38,-0.83,0.04,-0.05,0.89,15527746
-1.39,-0.84,0.04,-0.04,0.90,15531695
-1.39,-0.85,0.04,-0.03,0.89,15535642
-1.39,-0.86,0.04,-0.02,0.90,15539594
-1.39,-0.86,0.04,-0.01,0.89,15543543
-1.38,-0.87,0.03,-0.00,0.89,15547500
-1.37,-0.87,0.02,0.00,0.89,15551446
-1.36,-0.87,0.02,0.01,0.89,15555394
-1.35,-0.87,0.01,0.01,0.89,15559355
-1.34,-0.86,0.01,0.02,0.89,15563302
-1.32,-0.86,0.01,0.02,0.89,15567263
-1.31,-0.86,0.00,0.02,0.89,15571201
-1.30,-0.85,0.00,0.01,0.89,15575146
-1.29,-0.85,-0.00,0.01,0.89,15579091
-1.28,-0.84,-0.01,0.00,0.89,15583044
-1.28,-0.83,-0.01,-0.00,0.89,15586997
-1.27,-0.82,-0.01,-0.01,0.89,15590939
-1.27,-0.81,-0.01,-0.02,0.89,15594888
-1.28,-0.80,-0.01,-0.03,0.89,15598837
-1.28,-0.80,-0.01,-0.04,0.89,15602781
-1.29,-0.79,-0.00,-0.04,0.89,15606734
-1.30,-0.79,0.00,-0.05,0.89,15610673
-1.31,-0.79,0.01,-0.05,0.89,15614621
-1.32,-0.79,0.01,-0.06,0.89,15618572
-1.34,-0.80,0.02,-0.06,0.90,15622510
-1.35,-0.80,0.02,-0.06,0.90,15626459
-1.36,-0.81,0.02,-0.05,0.89,15630402
-1.37,-0.81,0.02,-0.05,0.90,15634345
-1.38,-0.81,0.02,-0.05,0.89,15638296
-1.39,-0.82,0.03,-0.05,0.90,15642241
-1.40,-0.83,0.03,-0.05,0.89,15646196
-1.40,-0.84,0.04,-0.04,0.90,15650139
-1.40,-0.84,0.04,-0.02,0.89,15654084
-1.40,-0.85,0.03,-0.01,0.90,15658026
-1.39,-0.85,0.02,-0.01,0.89,15661972
-1.39,-0.85,0.02,-0.00,0.90,15665918
-1.38,-0.85,0.01,0.01,0.89,15669858
-1.37,-0.85,0.01,0.01,0.89,15673814
-1.35,-0.85,0.01,0.02,0.89,15677756
-1.34,-0.84,0.01,0.02,0.89,15681703
-1.32,-0.84,0.01,0.02,0.89,15685659
-1.31,-0.84,0.00,0.02,0.89,15689602
-1.30,-0.83,0.00,0.01,0.89,15693328
-1.29,-0.82,-0.00,0.01,0.89,15697267
-1.28,-0.82,-0.01,0.00,0.89,15701214
-1.27,-0.81,-0.01,-0.00,0.89,15705161
-1.27,-0.80,-0.01,-0.01,0.89,15709111
-1.27,-0.79,-0.01,-0.02,0.89,15713073
-1.28,-0.79,-0.01,-0.03,0.89,15717016
-1.29,-0.79,0.00,-0.04,0.89,15720963
-1.29,-0.79,0.01,-0.04,0.89,15724919
-1.30,-0.79,0.01,-0.05,0.89,15728862
-1.32,-0.79,0.02,-0.06,0.90,15732818
-1.33,-0.80,0.02,-0.06,0.89,15736754
-1.35,-0.80,0.03,-0.06,0.90,15740693
-1.36,-0.81,0.03,-0.06,0.89,15744646
-1.37,-0.82,0.03,-0.05,0.90,15748584
-1.38,-0.82,0.03,-0.05,0.89,15752537
-1.39,-0.83,0.04,-0.05,0.90,15756482
-1.40,-0.84,0.04,-0.05,0.89,15760436
-1.40,-0.85,0.04,-0.04,0.90,15764373
-1.40,-0.86,0.04,-0.03,0.89,15768313
-1.40,-0.87,0.04,-0.01,0.90,15772268
-1.39,-0.87,0.03,-0.01,0.89,15776213
-1.39,-0.87,0.02,-0.00,0.89,15780171
-1.38,-0.87,0.02,0.00,0.90,15784111
-1.37,-0.87,0.01,0.01,0.89,15788067
-1.36,-0.87,0.01,0.02,0.89,15792018
-1.34,-0.86,0.01,0.02,0.89,15795965
-1.33,-0.86,0.00,0.02,0.89,15799916
-1.31,-0.85,0.00,0.02,0.89,15803856
-1.30,-0.85,-0.00,0.01,0.89,15807799
-1.29,-0.84,-0.01,0.01,0.89,15811748
-1.28,-0.83,-0.01,0.01,0.89,15815693
-1.28,-0.82,-0.02,-0.00,0.89,15819645
-1.27,-0.81,-0.02,-0.01,0.89,15823590
-1.27,-0.80,-0.02,-0.02,0.89,15827538
-1.28,-0.79,-0.01,-0.04,0.89,15831493
-1.29,-0.79,-0.01,-0.04,0.89,15835436
-1.30,-0.78,-0.00,-0.04,0.89,15839386
-1.31,-0.78,0.00,-0.05,0.89,15843331
-1.32,-0.78,0.01,-0.06,0.89,15847281
-1.33,-0.78,0.01,-0.07,0.89,15851238
-1.35,-0.79,0.02,-0.06,0.90,15855183
-1.36,-0.79,0.03,-0.06,0.89,15859142
-1.37,-0.80,0.03,-0.05,0.89,15863093
-1.38,-0.81,0.03,-0.05,0.90,15867046
-1.39,-0.81,0.03,-0.05,0.90,15870993
-1.40,-0.82,0.03,-0.05,0.90,15874930
-1.41,-0.83,0.04,-0.04,0.89,15878878
-1.41,-0.84,0.04,-0.03,0.90,15882813
-1.41,-0.84,0.04,-0.02,0.89,15886770
-1.40,-0.85,0.03,-0.01,0.90,15890713
-1.39,-0.85,0.02,-0.00,0.89,15894658
-1.39,-0.85,0.02,0.00,0.89,15898616
-1.37,-0.85,0.01,0.01,0.89,15902560
-1.36,-0.85,0.01,0.02,0.89,15906513
-1.35,-0.85,0.01,0.02,0.89,15910461
-1.33,-0.85,0.01,0.03,0.89,15914412
-1.32,-0.84,0.01,0.02,0.89,15918368
-1.30,-0.84,0.00,0.01,0.89,15922305
-1.29,-0.83,-0.00,0.01,0.89,15926253
-1.28,-0.83,-0.01,0.00,0.89,15930200
-1.28,-0.82,-0.01,-0.00,0.89,15934152
-1.28,-0.81,-0.01,-0.01,0.89,15938102
-1.28,-0.80,-0.01,-0.03,0.89,15942048
-1.28,-0.79,-0.01,-0.04,0.89,15946003
-1.29,-0.79,0.00,-0.04,0.89,15949945
-1.30,-0.79,0.01,-0.05,0.89,15953890
-1.31,-0.79,0.01,-0.05,0.90,15957841
-1.33,-0.79,0.02,-0.06,0.89,15961790
-1.34,-0.80,0.02,-0.06,0.90,15965739
-1.35,-0.80,0.03,-0.06,0.90,15969680
-1.37,-0.81,0.03,-0.06,0.90,15973627
-1.38,-0.81,0.03,-0.05,0.89,15977574
-1.39,-0.82,0.03,-0.05,0.90,15981516
-1.40,-0.83,0.04,-0.05,0.89,15985470
-1.41,-0.84,0.04,-0.05,0.90,15989416
-1.41,-0.85,0.04,-0.04,0.90,15993361
-1.42,-0.86,0.04,-0.03,0.89,15997309
-1.41,-0.86,0.03,-0.01,0.89,16001261
-1.41,-0.86,0.02,-0.00,0.89,16005215
-1.40,-0.87,0.02,0.00,0.89,16009156
-1.39,-0.87,0.02,0.01,0.89,16013115
-1.38,-0.86,0.01,0.01,0.89,16017059
-1.36,-0.86,0.01,0.02,0.89,16021013
-1.34,-0.86,0.01,0.03,0.89,16024969
-1.33,-0.85,0.00,0.03,0.89,16028910
-1.31,-0.85,-0.00,0.02,0.89,16032860
-1.30,-0.84,-0.00,0.02,0.89,16036792
-1.29,-0.83,-0.01,0.01,0.89,16040740
-1.28,-0.82,-0.01,0.00,0.89,16044687
-1.28,-0.81,-0.01,-0.00,0.89,16048628
-1.28,-0.80,-0.01,-0.01,0.89,16052585
-1.28,-0.80,-0.01,-0.02,0.89,16056526
-1.28,-0.79,-0.01,-0.03,0.89,16060481
-1.29,-0.78,-0.01,-0.04,0.89,16064438
-1.30,-0.78,-0.00,-0.05,0.89,16068375
-1.31,-0.78,0.00,-0.05,0.89,16072330
-1.32,-0.78,0.01,-0.06,0.89,16076274
-1.34,-0.78,0.02,-0.07,0.89,16080230
-1.35,-0.79,0.03,-0.07,0.90,16084183
-1.37,-0.80,0.03,-0.06,0.89,16088131
-1.38,-0.80,0.03,-0.06,0.90,16092085
-1.39,-0.81,0.03,-0.05,0.90,16096027
-1.40,-0.82,0.03,-0.05,0.90,16099974
-1.41,-0.83,0.04,-0.05,0.89,16103927
-1.41,-0.84,0.04,-0.04,0.90,16107869
-1.41,-0.84,0.04,-0.02,0.89,16111826
-1.41,-0.85,0.04,-0.01,0.90,16115771
-1.40,-0.86,0.03,-0.00,0.89,16119720
-1.39,-0.86,0.02,0.00,0.89,16123667
-1.38,-0.86,0.02,0.01,0.89,16127619
-1.37,-0.86,0.01,0.02,0.89,16131572
-1.35,-0.86,0.01,0.03,0.89,16135520
-1.33,-0.85,0.01,0.03,0.89,16139473
-1.32,-0.85,0.01,0.02,0.89,16143417
-1.31,-0.85,0.00,0.02,0.89,16147363
-1.29,-0.84,0.01,0.02,0.89,16151315
-1.28,-0.84,-0.00,0.01,0.89,16155261
-1.27,-0.83,-0.01,0.00,0.89,16159223
-1.27,-0.82,-0.01,-0.01,0.89,16163169
-1.27,-0.81,-0.01,-0.02,0.89,16167127
-1.27,-0.80,-0.01,-0.03,0.89,16171084
-1.28,-0.80,-0.00,-0.04,0.89,16175024
-1.29,-0.79,0.00,-0.04,0.89,16178977
-1.30,-0.79,0.01,-0.05,0.89,16182918
-1.31,-0.79,0.01,-0.06,0.89,16186861
-1.33,-0.80,0.02,-0.07,0.90,16190806
-1.34,-0.80,0.02,-0.07,0.89,16194753
-1.36,-0.81,0.03,-0.07,0.90,16198701
-1.37,-0.81,0.03,-0.06,0.89,16202641
-1.38,-0.82,0.03,-0.05,0.90,16206594
-1.39,-0.83,0.03,-0.05,0.89,16210540
-1.40,-0.83,0.03,-0.05,0.90,16214482
-1.41,-0.84,0.04,-0.04,0.89,16218444
-1.41,-0.85,0.03,-0.03,0.89,16222386
-1.41,-0.85,0.03,-0.02,0.89,16226348
-1.40,-0.86,0.02,-0.00,0.89,16230287
-1.39,-0.86,0.02,0.00,0.89,16234239
-1.38,-0.86,0.01,0.01,0.89,16238191
-1.37,-0.86,0.01,0.01,0.89,16242147
-1.36,-0.85,0.01,0.02,0.89,16246105
-1.34,-0.85,0.01,0.03,0.89,16250048
-1.32,-0.84,-0.00,0.03,0.89,16253994
-1.31,-0.84,-0.00,0.03,0.89,16257945
-1.29,-0.83,-0.01,0.02,0.89,16261890
-1.28,-0.82,-0.01,0.01,0.89,16265848
-1.27,-0.81,-0.01,0.01,0.89,16269794
-1.27,-0.80,-0.01,-0.00,0.89,16273743
-1.26,-0.79,-0.01,-0.01,0.89,16277699
-1.27,-0.79,-0.01,-0.03,0.89,16281636
-1.27,-0.78,-0.01,-0.04,0.89,16285594
-1.28,-0.78,-0.00,-0.04,0.90,16289532
-1.29,-0.78,0.00,-0.05,0.89,16293477
-1.30,-0.78,0.01,-0.06,0.89,16297418
-1.32,-0.78,0.01,-0.06,0.90,16301372
-1.33,-0.78,0.02,-0.07,0.89,16305333
-1.35,-0.79,0.03,-0.07,0.90,16309285
-1.36,-0.79,0.03,-0.06,0.89,16313242
-1.38,-0.80,0.03,-0.06,0.89,16317191
-1.39,-0.81,0.03,-0.05,0.89,16321143
-1.40,-0.82,0.04,-0.05,0.90,16325096
-1.41,-0.83,0.04,-0.05,0.89,16329042
-1.41,-0.84,0.04,-0.04,0.90,16332993
-1.41,-0.85,0.04,-0.02,0.89,16336937
-1.41,-0.85,0.03,-0.01,0.90,16340883
-1.40,-0.86,0.03,0.00,0.89,16344831
-1.39,-0.86,0.02,0.01,0.89,16348773
-1.38,-0.86,0.02,0.01,0.89,16352730
-1.36,-0.86,0.01,0.02,0.89,16356670
-1.35,-0.85,0.01,0.02,0.89,16360624
-1.33,-0.85,0.01,0.03,0.89,16364576
-1.31,-0.85,0.00,0.03,0.89,16368521
-1.30,-0.84,-0.00,0.02,0.89,16372468
-1.29,-0.83,-0.00,0.01,0.89,16376410
-1.28,-0.83,-0.01,0.01,0.89,16380363
-1.27,-0.82,-0.01,-0.00,0.89,16384316
-1.27,-0.81,-0.01,-0.01,0.89,16388265
-1.27,-0.80,-0.01,-0.02,0.89,16392221
-1.28,-0.79,-0.01,-0.03,0.89,16396162
-1.28,-0.79,-0.00,-0.04,0.89,16400113
-1.29,-0.79,0.00,-0.05,0.89,16404068
-1.31,-0.79,0.01,-0.06,0.90,16408013
-1.32,-0.79,0.01,-0.06,0.89,16411972
-1.34,-0.79,0.02,-0.07,0.90,16415912
-1.35,-0.80,0.02,-0.07,0.89,16419857
-1.37,-0.80,0.03,-0.07,0.90,16423790
-1.38,-0.81,0.03,-0.06,0.89,16427730
-1.39,-0.81,0.03,-0.05,0.90,16431680
-1.40,-0.82,0.03,-0.05,0.89,16435621
-1.41,-0.83,0.03,-0.05,0.90,16439572
-1.42,-0.83,0.04,-0.04,0.89,16443515
-1.42,-0.84,0.04,-0.03,0.89,16447468
-1.41,-0.85,0.04,-0.01,0.89,16451428
-1.41,-0.85,0.02,0.00,0.89,16455374
-1.40,-0.85,0.02,0.01,0.89,16459326
-1.39,-0.85,0.01,0.01,0.89,16463275
-1.37,-0.85,0.01,0.02,0.89,16467227
-1.36,-0.84,0.01,0.03,0.89,16471180
-1.34,-0.84,0.01,0.03,0.89,16475129
-1.32,-0.84,0.00,0.03,0.89,16479083
-1.31,-0.83,0.00,0.02,0.89,16483021
-1.29,-0.82,-0.00,0.02,0.89,16486967
-1.28,-0.82,-0.01,0.01,0.89,16490912
-1.28,-0.81,-0.01,0.00,0.88,16494859
-1.27,-0.80,-0.01,-0.01,0.89,16498809
-1.27,-0.79,-0.01,-0.02,0.89,16502755
-1.27,-0.78,-0.01,-0.03,0.89,16506705
-1.28,-0.78,-0.00,-0.04,0.89,16510652
-1.29,-0.78,0.00,-0.05,0.89,16514593
-1.30,-0.78,0.01,-0.05,0.89,16518546
-1.32,-0.78,0.01,-0.06,0.89,16522488
-1.33,-0.78,0.01,-0.06,0.89,16526442
-1.35,-0.79,0.02,-0.07,0.89,16530388
-1.36,-0.79,0.03,-0.07,0.90,16534338
-1.38,-0.80,0.03,-0.06,0.90,16538288
-1.39,-0.81,0.03,-0.06,0.90,16542230
-1.40,-0.82,0.04,-0.05,0.89,16546182
-1.41,-0.83,0.04,-0.05,0.90,16550124
-1.41,-0.84,0.04,-0.04,0.90,16554077
-1.42,-0.84,0.04,-0.03,0.90,16558028
-1.41,-0.85,0.03,-0.01,0.89,16561978
-1.40,-0.85,0.03,-0.00,0.90,16565923
-1.40,-0.86,0.02,0.00,0.89,16569857
-1.38,-0.86,0.02,0.01,0.90,16573805
-1.37,-0.86,0.02,0.02,0.89,16577755
-1.35,-0.86,0.01,0.03,0.89,16581703
-1.34,-0.86,0.01,0.03,0.89,16585655
-1.32,-0.85,-0.00,0.03,0.89,16589596
-1.30,-0.84,-0.01,0.03,0.89,16593552
-1.29,-0.83,-0.01,0.02,0.89,16597493
-1.28,-0.82,-0.01,0.01,0.89,16601441
-1.27,-0.82,-0.01,0.00,0.89,16605391
-1.27,-0.81,-0.01,-0.00,0.89,16609338
-1.26,-0.80,-0.01,-0.01,0.89,16613289
-1.27,-0.80,-0.01,-0.03,0.89,16617239
-1.27,-0.79,-0.00,-0.04,0.89,16621184
-1.28,-0.79,-0.00,-0.05,0.89,16625143
-1.30,-0.78,0.00,-0.06,0.89,16629082
-1.31,-0.79,0.01,-0.06,0.89,16633035
-1.33,-0.79,0.02,-0.07,0.89,16636984
-1.35,-0.79,0.02,-0.07,0.90,16640926
-1.36,-0.80,0.03,-0.07,0.89,16644879
-1.38,-0.81,0.03,-0.06,0.90,16648819
-1.39,-0.81,0.03,-0.06,0.89,16652784
-1.40,-0.82,0.03,-0.05,0.90,16656716
-1.41,-0.83,0.03,-0.05,0.89,16660665
-1.41,-0.83,0.03,-0.04,0.90,16664618
-1.41,-0.84,0.04,-0.02,0.89,16668568
-1.41,-0.85,0.04,-0.01,0.90,16672519
-1.40,-0.85,0.03,0.00,0.89,16676459
-1.39,-0.86,0.02,0.01,0.89,16680419
-1.38,-0.86,0.02,0.01,0.89,16684377
-1.37,-0.86,0.01,0.02,0.89,16688323
-1.35,-0.86,0.01,0.03,0.89,16692280
-1.33,-0.85,0.01,0.03,0.89,16696223
-1.31,-0.85,0.00,0.03,0.89,16700173
-1.30,-0.84,-0.00,0.03,0.89,16704115
-1.28,-0.83,-0.00,0.02,0.89,16708060
-1.27,-0.83,-0.01,0.01,0.89,16712017
-1.27,-0.82,-0.01,0.01,0.89,16715965
-1.26,-0.81,-0.01,-0.00,0.89,16719915
-1.26,-0.80,-0.01,-0.01,0.89,16723861
-1.26,-0.79,-0.01,-0.03,0.89,16727807
-1.27,-0.79,-0.00,-0.04,0.89,16731754
-1.28,-0.79,0.01,-0.05,0.89,16735696
-1.29,-0.79,0.01,-0.06,0.89,16739655
-1.31,-0.79,0.02,-0.06,0.89,16743605
-1.32,-0.80,0.02,-0.07,0.90,16747546
-1.34,-0.80,0.02,-0.07,0.90,16751499
-1.36,-0.81,0.02,-0.07,0.89,16755441
-1.37,-0.81,0.03,-0.06,0.89,16759391
-1.39,-0.82,0.03,-0.06,0.89,16763338
-1.40,-0.83,0.04,-0.06,0.90,16767289
-1.41,-0.84,0.04,-0.05,0.90,16771247
-1.41,-0.85,0.04,-0.04,0.90,16775191
-1.41,-0.85,0.04,-0.02,0.89,16779143
-1.41,-0.86,0.04,-0.01,0.90,16783087
-1.40,-0.87,0.03,0.00,0.89,16787034
-1.39,-0.87,0.02,0.01,0.89,16790992
-1.38,-0.87,0.02,0.01,0.89,16794933
-1.36,-0.86,0.01,0.02,0.89,16798885
-1.34,-0.86,0.01,0.03,0.89,16802830
-1.33,-0.86,0.01,0.03,0.89,16806775
-1.31,-0.86,0.01,0.03,0.89,16810717
-1.29,-0.85,-0.00,0.02,0.89,16814662
-1.28,-0.84,-0.01,0.02,0.89,16818618
-1.27,-0.83,-0.01,0.01,0.89,16822561
-1.26,-0.82,-0.02,0.00,0.89,16826515
-1.26,-0.81,-0.02,-0.01,0.89,16830458
-1.26,-0.80,-0.01,-0.02,0.89,16834400
-1.27,-0.80,-0.01,-0.03,0.89,16838356
-1.27,-0.79,-0.00,-0.04,0.89,16842300
-1.28,-0.79,0.00,-0.05,0.89,16846259
-1.30,-0.79,0.00,-0.06,0.89,16850194
-1.31,-0.79,0.01,-0.06,0.89,16854146
-1.33,-0.79,0.01,-0.07,0.90,16858100
-1.35,-0.79,0.02,-0.07,0.89,16862042
-1.37,-0.80,0.03,-0.07,0.90,16865997
-1.38,-0.81,0.03,-0.06,0.89,16869944
-1.39,-0.82,0.03,-0.06,0.90,16873893
-1.40,-0.82,0.03,-0.06,0.89,16877854
-1.41,-0.83,0.03,-0.05,0.90,16881797
-1.42,-0.84,0.03,-0.04,0.89,16885751
-1.42,-0.84,0.04,-0.02,0.89,16889697
-1.41,-0.85,0.03,-0.01,0.89,16893652
-1.40,-0.86,0.03,0.00,0.89,16897602
-1.39,-0.86,0.03,0.01,0.89,16901542
-1.38,-0.86,0.02,0.01,0.90,16905492
-1.36,-0.86,0.02,0.02,0.89,16909433
-1.35,-0.86,0.01,0.03,0.89,16913384
-1.33,-0.86,0.00,0.04,0.89,16917323
-1.31,-0.85,-0.00,0.03,0.89,16921273
-1.29,-0.84,-0.00,0.03,0.89,16925237
-1.28,-0.84,-0.00,0.02,0.89,16929177
-1.27,-0.83,-0.00,0.01,0.89,16933129
-1.26,-0.83,-0.00,-0.00,0.89,16937065
-1.26,-0.82,-0.01,-0.01,0.89,16941019
-1.26,-0.81,-0.01,-0.03,0.89,16944974
-1.27,-0.80,-0.01,-0.04,0.89,16948917
-1.28,-0.80,-0.01,-0.05,0.89,16952870
-1.29,-0.80,0.00,-0.05,0.89,16956809
-1.31,-0.80,0.01,-0.06,0.89,16960755
-1.32,-0.80,0.02,-0.07,0.90,16964707
-1.34,-0.81,0.02,-0.08,0.89,16968657
-1.36,-0.81,0.03,-0.08,0.90,16972613
-1.38,-0.82,0.03,-0.07,0.89,16976559
-1.39,-0.83,0.03,-0.06,0.90,16980508
-1.40,-0.83,0.03,-0.05,0.89,16984462
-1.41,-0.84,0.03,-0.05,0.90,16988397
-1.42,-0.85,0.03,-0.04,0.90,16992352
-1.42,-0.85,0.04,-0.03,0.90,16996290
-1.42,-0.86,0.04,-0.02,0.89,17000246
-1.41,-0.87,0.03,-0.00,0.89,17004205
-1.40,-0.87,0.03,0.01,0.89,17008141
-1.39,-0.87,0.02,0.01,0.89,17012098
-1.38,-0.87,0.01,0.02,0.89,17016041
-1.36,-0.87,0.01,0.03,0.89,17019989
-1.34,-0.86,0.01,0.04,0.89,17023939
-1.32,-0.86,0.00,0.04,0.89,17027884
-1.30,-0.85,0.00,0.03,0.89,17031826
-1.29,-0.85,-0.00,0.02,0.89,17035764
-1.28,-0.84,-0.01,0.02,0.89,17039720
-1.27,-0.83,-0.01,0.01,0.89,17043665
-1.26,-0.82,-0.02,0.00,0.89,17047610
-1.26,-0.81,-0.02,-0.01,0.89,17051569
-1.26,-0.80,-0.02,-0.03,0.89,17055504
-1.27,-0.80,-0.01,-0.04,0.89,17059460
-1.28,-0.79,0.00,-0.05,0.89,17063399
-1.29,-0.79,0.01,-0.05,0.89,17067342
-1.30,-0.80,0.01,-0.06,0.89,17071290
-1.32,-0.80,0.02,-0.07,0.90,17075228
-1.34,-0.80,0.02,-0.08,0.89,17079178
-1.36,-0.81,0.02,-0.08,0.90,17083123
-1.38,-0.81,0.03,-0.07,0.89,17087074
-1.39,-0.82,0.03,-0.06,0.90,17091027
-1.40,-0.83,0.04,-0.05,0.89,17094968
-1.41,-0.84,0.04,-0.05,0.90,17098922
-1.41,-0.85,0.04,-0.04,0.89,17102869
-1.42,-0.86,0.04,-0.03,0.90,17106815
-1.41,-0.86,0.04,-0.01,0.89,17110774
-1.40,-0.87,0.03,0.00,0.89,17114712
-1.39,-0.87,0.02,0.01,0.89,17118669
-1.38,-0.87,0.02,0.02,0.89,17122613
-1.36,-0.87,0.02,0.02,0.89,17126564
-1.35,-0.87,0.01,0.03,0.89,17130514
-1.33,-0.87,0.01,0.03,0.89,17134466
-1.31,-0.86,0.00,0.03,0.89,17138415
-1.29,-0.85,-0.00,0.03,0.89,17142358
-1.28,-0.85,-0.01,0.02,0.89,17146315
-1.27,-0.84,-0.01,0.02,0.89,17150259
-1.26,-0.83,-0.01,0.01,0.89,17154211
-1.25,-0.82,-0.01,-0.00,0.89,17158169
-1.25,-0.81,-0.01,-0.02,0.89,17162117
-1.26,-0.80,-0.01,-0.03,0.89,17166071
-1.27,-0.80,-0.01,-0.04,0.89,17170016
-1.28,-0.80,0.00,-0.05,0.89,17173962
-1.29,-0.80,0.01,-0.06,0.89,17177911
-1.31,-0.80,0.01,-0.06,0.90,17181854
-1.33,-0.80,0.02,-0.07,0.89,17185814
-1.35,-0.80,0.02,-0.08,0.90,17189760
-1.36,-0.81,0.03,-0.07,0.90,17193707
-1.38,-0.82,0.03,-0.06,0.90,17197661
-1.39,-0.82,0.03,-0.06,0.89,17201606
-1.40,-0.83,0.03,-0.05,0.90,17205558
-1.41,-0.84,0.03,-0.05,0.90,17209501
-1.41,-0.85,0.03,-0.04,0.89,17213453
-1.41,-0.85,0.04,-0.02,0.89,17217410
-1.40,-0.86,0.03,-0.00,0.89,17221346
-1.39,-0.86,0.03,0.01,0.89,17225306
-1.38,-0.86,0.02,0.01,0.89,17229247
-1.37,-0.86,0.02,0.02,0.90,17233188
-1.35,-0.86,0.01,0.03,0.89,17237133
-1.33,-0.86,0.01,0.04,0.89,17241088
-1.31,-0.85,0.00,0.04,0.89,17245036
-1.30,-0.85,0.00,0.03,0.89,17248972
-1.28,-0.84,-0.00,0.02,0.89,17252922
-1.27,-0.83,-0.01,0.02,0.89,17256858
-1.26,-0.82,-0.01,0.01,0.89,17260807
-1.25,-0.81,-0.01,0.00,0.89,17264763
-1.25,-0.81,-0.01,-0.02,0.89,17268710
-1.25,-0.80,-0.01,-0.03,0.89,17272666
-1.26,-0.79,-0.01,-0.04,0.89,17276609
-1.27,-0.79,-0.00,-0.05,0.89,17280554
-1.28,-0.79,0.01,-0.05,0.89,17284509
-1.30,-0.79,0.01,-0.06,0.89,17288452
-1.32,-0.79,0.01,-0.07,0.89,17292412
-1.34,-0.79,0.02,-0.08,0.90,17296357
-1.35,-0.80,0.02,-0.07,0.89,17300306
-1.37,-0.80,0.03,-0.07,0.90,17304253
-1.38,-0.81,0.03,-0.06,0.90,17308201
-1.39,-0.82,0.04,-0.06,0.90,17312153
-1.40,-0.83,0.04,-0.05,0.90,17316095
-1.41,-0.84,0.04,-0.04,0.89,17320046
-1.41,-0.84,0.03,-0.03,0.90,17323996
-1.41,-0.85,0.03,-0.01,0.89,17327941
-1.40,-0.86,0.03,-0.00,0.90,17331889
-1.39,-0.86,0.03,0.01,0.89,17335832
-1.38,-0.86,0.02,0.02,0.90,17339778
-1.36,-0.86,0.02,0.02,0.89,17343720
-1.34,-0.86,0.01,0.03,0.89,17347669
-1.32,-0.86,0.01,0.04,0.89,17351626
-1.30,-0.85,-0.00,0.03,0.89,17355560
-1.29,-0.84,-0.01,0.03,0.89,17359512
-1.27,-0.83,-0.01,0.02,0.89,17363456
-1.26,-0.82,-0.01,0.01,0.89,17367410
-1.25,-0.82,-0.01,0.01,0.89,17371368
-1.25,-0.81,-0.01,-0.01,0.89,17375311
-1.25,-0.80,-0.01,-0.02,0.89,17379267
-1.26,-0.80,-0.01,-0.04,0.89,17383211
-1.27,-0.79,-0.00,-0.05,0.89,17387165
-1.28,-0.79,0.00,-0.05,0.89,17391119
-1.29,-0.79,0.01,-0.06,0.89,17395060
-1.31,-0.79,0.01,-0.07,0.90,17399012
-1.33,-0.79,0.02,-0.08,0.89,17402952
-1.35,-0.80,0.02,-0.08,0.90,17406896
-1.37,-0.80,0.03,-0.07,0.89,17410849
-1.38,-0.81,0.03,-0.07,0.90,17414789
-1.39,-0.82,0.03,-0.06,0.89,17418741
-1.40,-0.83,0.03,-0.05,0.90,17422675
-1.41,-0.83,0.03,-0.04,0.90,17426621
-1.41,-0.84,0.03,-0.03,0.89,17430578
-1.41,-0.85,0.03,-0.02,0.89,17434525
-1.40,-0.85,0.03,-0.00,0.89,17438479
-1.39,-0.86,0.03,0.01,0.89,17442421
-1.38,-0.86,0.03,0.01,0.89,17446379
-1.37,-0.86,0.02,0.02,0.89,17450323
-1.35,-0.86,0.02,0.03,0.89,17454276
-1.33,-0.86,0.01,0.04,0.89,17458225
-1.31,-0.85,-0.00,0.04,0.89,17462157
-1.29,-0.85,-0.00,0.03,0.89,17466112
-1.28,-0.84,-0.01,0.02,0.89,17470057
-1.27,-0.83,-0.01,0.02,0.89,17474010
-1.26,-0.82,-0.01,0.01,0.89,17477968
-1.25,-0.81,-0.01,0.00,0.90,17481899
-1.25,-0.81,-0.01,-0.02,0.89,17485853
-1.25,-0.80,-0.01,-0.03,0.89,17489793
-1.26,-0.79,-0.01,-0.05,0.89,17493743
-1.28,-0.79,-0.00,-0.05,0.89,17497696
-1.29,-0.79,0.01,-0.06,0.89,17501639
-1.30,-0.79,0.01,-0.06,0.89,17505587
-1.32,-0.79,0.02,-0.07,0.89,17509533
-1.34,-0.79,0.02,-0.08,0.90,17513485
-1.36,-0.80,0.03,-0.08,0.89,17517439
-1.38,-0.81,0.03,-0.07,0.90,17521385
-1.39,-0.81,0.03,-0.06,0.90,17525337
-1.40,-0.82,0.03,-0.06,0.89,17529277
-1.41,-0.83,0.03,-0.05,0.90,17533227
-1.42,-0.84,0.04,-0.04,0.89,17537185
-1.42,-0.84,0.04,-0.02,0.90,17541126
-1.41,-0.85,0.03,-0.01,0.89,17545087
-1.40,-0.85,0.03,0.00,0.89,17549028
-1.39,-0.86,0.02,0.01,0.89,17552973
-1.38,-0.86,0.02,0.02,0.89,17556918
-1.36,-0.85,0.01,0.03,0.89,17560863
-1.34,-0.85,0.01,0.04,0.89,17564813
-1.31,-0.85,0.00,0.04,0.89,17568758
-1.30,-0.84,-0.00,0.03,0.89,17572707
-1.28,-0.83,-0.00,0.02,0.89,17576645
-1.27,-0.82,-0.01,0.02,0.89,17580592
-1.26,-0.82,-0.01,0.01,0.89,17584547
-1.25,-0.81,-0.01,0.00,0.89,17588486
-1.25,-0.80,-0.01,-0.01,0.89,17592442
-1.25,-0.79,-0.01,-0.03,0.89,17596388
-1.26,-0.78,-0.01,-0.04,0.89,17600341
-1.27,-0.78,-0.00,-0.05,0.89,17604297
-1.28,-0.78,0.00,-0.06,0.89,17608243
-1.30,-0.78,0.01,-0.06,0.89,17612195
-1.31,-0.78,0.02,-0.07,0.90,17616135
-1.33,-0.78,0.02,-0.08,0.89,17620092
-1.35,-0.79,0.03,-0.08,0.90,17624052
-1.37,-0.80,0.03,-0.07,0.89,17627993
-1.38,-0.80,0.03,-0.06,0.90,17631938
-1.39,-0.81,0.03,-0.06,0.89,17635882
-1.40,-0.82,0.03,-0.05,0.90,17639830
-1.41,-0.83,0.04,-0.04,0.89,17643788
-1.41,-0.84,0.04,-0.03,0.89,17647735
-1.41,-0.84,0.04,-0.01,0.89,17651692
-1.40,-0.85,0.03,0.00,0.89,17655633
-1.39,-0.85,0.02,0.01,0.89,17659579
-1.37,-0.85,0.02,0.02,0.89,17663532
-1.36,-0.85,0.01,0.03,0.89,17667477
-1.34,-0.85,0.01,0.04,0.89,17671428
-1.32,-0.84,0.00,0.04,0.89,17675366
-1.30,-0.84,0.00,0.03,0.89,17679089
-1.28,-0.83,-0.00,0.03,0.89,17683032
-1.27,-0.82,-0.01,0.02,0.89,17686979
-1.26,-0.82,-0.01,0.02,0.89,17690936
-1.25,-0.81,-0.01,0.01,0.89,17694875
-1.24,-0.80,-0.01,-0.00,0.89,17698823
-1.24,-0.79,-0.01,-0.02,0.89,17702771
-1.25,-0.78,-0.01,-0.04,0.89,17706721
-1.26,-0.78,-0.01,-0.05,0.89,17710678
-1.27,-0.78,0.00,-0.05,0.89,17714619
-1.29,-0.78,0.01,-0.06,0.89,17718576
-1.30,-0.78,0.01,-0.07,0.89,17722519
-1.32,-0.78,0.02,-0.08,0.89,17726468
-1.34,-0.79,0.02,-0.08,0.90,17730420
-1.36,-0.79,0.03,-0.07,0.89,17734364
-1.37,-0.80,0.03,-0.06,0.89,17738319
-1.39,-0.81,0.03,-0.06,0.89,17742266
-1.40,-0.82,0.03,-0.05,0.89,17746215
-1.41,-0.83,0.04,-0.05,0.89,17750178
-1.41,-0.83,0.04,-0.03,0.89,17754123
-1.41,-0.84,0.04,-0.02,0.90,17758077
-1.40,-0.85,0.03,-0.00,0.89,17762016
-1.39,-0.85,0.03,0.01,0.89,17765960
-1.37,-0.85,0.02,0.01,0.89,17769910
-1.36,-0.85,0.01,0.02,0.89,17773853
-1.34,-0.85,0.01,0.03,0.89,17777805
-1.32,-0.85,0.01,0.04,0.89,17781754
-1.30,-0.84,0.01,0.04,0.89,17785705
-1.28,-0.84,0.01,0.03,0.89,17789653
-1.27,-0.84,0.00,0.02,0.89,17793593
-1.26,-0.83,-0.00,0.02,0.89,17797543
-1.25,-0.82,-0.01,0.01,0.89,17801480
-1.24,-0.81,-0.01,-0.00,0.89,17805431
-1.24,-0.80,-0.02,-0.02,0.89,17809371
-1.25,-0.79,-0.01,-0.04,0.89,17813324
-1.26,-0.79,-0.00,-0.05,0.89,17817277
-1.27,-0.79,0.00,-0.05,0.89,17821225
-1.28,-0.79,0.01,-0.06,0.90,17825183
-1.30,-0.79,0.01,-0.07,0.90,17829124
-1.32,-0.79,0.02,-0.08,0.90,17833073
-1.34,-0.80,0.02,-0.08,0.90,17837021
-1.36,-0.80,0.02,-0.07,0.90,17840956
-1.38,-0.81,0.03,-0.07,0.89,17844916
-1.39,-0.81,0.03,-0.06,0.90,17848856
-1.40,-0.82,0.03,-0.05,0.89,17852800
-1.40,-0.83,0.04,-0.05,0.90,17856739
-1.41,-0.84,0.04,-0.04,0.89,17860688
-1.41,-0.85,0.04,-0.02,0.90,17864643
-1.40,-0.85,0.03,-0.00,0.89,17868585
-1.39,-0.86,0.03,0.01,0.89,17872532
-1.38,-0.86,0.02,0.01,0.89,17876473
-1.36,-0.86,0.02,0.02,0.89,17880424
-1.34,-0.86,0.01,0.03,0.89,17884377
-1.32,-0.85,0.01,0.04,0.89,17888324
-1.30,-0.85,0.00,0.04,0.89,17892273
-1.28,-0.84,-0.00,0.03,0.89,17896221
-1.27,-0.84,-0.00,0.02,0.89,17900165
-1.26,-0.83,-0.01,0.02,0.89,17904121
-1.24,-0.82,-0.01,0.01,0.89,17908066
-1.24,-0.81,-0.01,-0.00,0.89,17912020
-1.24,-0.81,-0.01,-0.02,0.89,17915964
-1.25,-0.80,-0.01,-0.04,0.89,17919914
-1.26,-0.79,-0.01,-0.05,0.90,17923865
-1.27,-0.79,0.00,-0.05,0.89,17927810
-1.28,-0.79,0.01,-0.05,0.90,17931766
-1.29,-0.79,0.01,-0.06,0.89,17935707
-1.31,-0.79,0.02,-0.08,0.90,17939657
-1.34,-0.80,0.02,-0.09,0.90,17943603
-1.36,-0.80,0.03,-0.08,0.90,17947541
-1.37,-0.81,0.03,-0.07,0.89,17951501
-1.39,-0.82,0.03,-0.06,0.90,17955435
-1.40,-0.83,0.03,-0.05,0.89,17959373
-1.41,-0.83,0.03,-0.05,0.89,17963328
-1.41,-0.84,0.03,-0.03,0.89,17967278
-1.41,-0.85,0.03,-0.02,0.89,17971237
-1.40,-0.85,0.04,-0.01,0.90,17975176
-1.39,-0.86,0.03,0.01,0.89,17979132
-1.38,-0.86,0.03,0.01,0.90,17983075
-1.37,-0.87,0.02,0.02,0.89,17987028
-1.35,-0.87,0.02,0.03,0.89,17990985
-1.33,-0.86,0.01,0.04,0.89,17994935
-1.31,-0.86,0.00,0.04,0.89,17998892
-1.29,-0.85,-0.00,0.03,0.89,18002831
-1.27,-0.84,-0.01,0.02,0.89,18006776
-1.26,-0.83,-0.01,0.02,0.89,18010733
-1.25,-0.83,-0.01,0.01,0.89,18014685
-1.24,-0.82,-0.01,0.00,0.89,18018414
-1.24,-0.81,-0.01,-0.01,0.89,18022363
-1.25,-0.80,-0.01,-0.03,0.89,18026309
-1.26,-0.80,-0.01,-0.05,0.89,18030268
-1.27,-0.79,-0.00,-0.05,0.89,18034212
-1.28,-0.79,0.01,-0.06,0.89,18038167
-1.30,-0.79,0.01,-0.07,0.89,18042113
-1.32,-0.79,0.02,-0.08,0.89,18046063
-1.34,-0.80,0.02,-0.08,0.90,18050009
-1.36,-0.80,0.02,-0.08,0.89,18053949
-1.38,-0.81,0.03,-0.07,0.90,18057901
-1.39,-0.82,0.03,-0.06,0.89,18061847
-1.40,-0.82,0.03,-0.06,0.90,18065783
-1.41,-0.83,0.03,-0.05,0.90,18069733
-1.41,-0.84,0.04,-0.04,0.90,18073685
-1.41,-0.85,0.04,-0.02,0.89,18077640
-1.41,-0.85,0.03,-0.00,0.90,18081575
-1.40,-0.86,0.03,0.01,0.89,18085528
-1.38,-0.86,0.02,0.01,0.90,18089476
-1.37,-0.86,0.02,0.02,0.89,18093426
-1.35,-0.86,0.01,0.03,0.89,18097387
-1.33,-0.86,0.01,0.04,0.89,18101332
-1.31,-0.85,0.01,0.04,0.89,18105295
-1.29,-0.85,0.00,0.03,0.89,18109238
-1.28,-0.84,-0.00,0.02,0.89,18113190
-1.26,-0.84,-0.00,0.02,0.89,18117147
-1.25,-0.83,-0.01,0.02,0.89,18121092
-1.24,-0.82,-0.01,0.00,0.89,18125045
-1.24,-0.81,-0.02,-0.01,0.89,18128987
-1.25,-0.80,-0.01,-0.03,0.89,18132936
-1.26,-0.80,-0.01,-0.05,0.89,18136886
-1.27,-0.79,0.00,-0.05,0.89,18140824
-1.28,-0.79,0.01,-0.06,0.89,18144784
-1.30,-0.80,0.02,-0.07,0.90,18148714
-1.32,-0.80,0.02,-0.08,0.89,18152665
-1.34,-0.80,0.02,-0.08,0.90,18156608
-1.36,-0.81,0.02,-0.08,0.89,18160563
-1.37,-0.81,0.03,-0.07,0.90,18164518
-1.38,-0.82,0.03,-0.06,0.89,18168463
-1.39,-0.83,0.03,-0.05,0.90,18172407
-1.40,-0.84,0.04,-0.05,0.90,18176353
-1.41,-0.85,0.04,-0.04,0.90,18180292
-1.41,-0.85,0.04,-0.03,0.90,18184245
-1.41,-0.86,0.03,-0.01,0.90,18188191
-1.40,-0.86,0.03,0.00,0.89,18192136
-1.39,-0.87,0.02,0.01,0.89,18196081
-1.37,-0.87,0.02,0.02,0.89,18200026
-1.35,-0.86,0.01,0.03,0.89,18203983
-1.33,-0.86,0.01,0.04,0.89,18207931
-1.31,-0.86,0.01,0.04,0.89,18211889
-1.29,-0.85,0.00,0.04,0.89,18215824
-1.28,-0.85,-0.01,0.03,0.89,18219770
-1.26,-0.84,-0.01,0.02,0.89,18223716
-1.25,-0.83,-0.02,0.01,0.89,18227658
-1.24,-0.82,-0.01,0.00,0.89,18231607
-1.24,-0.81,-0.02,-0.01,0.89,18235557
-1.25,-0.80,-0.01,-0.03,0.89,18239501
-1.26,-0.79,-0.01,-0.05,0.89,18243452
-1.27,-0.79,0.00,-0.06,0.90,18247394
-1.28,-0.79,0.01,-0.06,0.89,18251351
-1.30,-0.79,0.01,-0.07,0.89,18255299
-1.32,-0.79,0.02,-0.08,0.90,18259249
-1.34,-0.79,0.02,-0.08,0.90,18263198
-1.36,-0.80,0.02,-0.08,0.90,18267134
-1.38,-0.81,0.03,-0.07,0.89,18271092
-1.39,-0.81,0.03,-0.06,0.90,18275035
-1.40,-0.82,0.03,-0.06,0.89,18278988
-1.41,-0.83,0.03,-0.05,0.90,18282930
-1.42,-0.83,0.04,-0.04,0.90,18286876
-1.42,-0.84,0.04,-0.03,0.90,18290827
-1.41,-0.85,0.04,-0.01,0.90,18294773
-1.40,-0.85,0.03,0.01,0.90,18298721
-1.39,-0.86,0.02,0.01,0.89,18302676
-1.37,-0.85,0.01,0.02,0.90,18306626
-1.36,-0.85,0.01,0.03,0.89,18310585
-1.33,-0.85,0.01,0.04,0.89,18314534
-1.31,-0.85,0.01,0.04,0.89,18318488
-1.29,-0.85,0.01,0.04,0.89,18322432
-1.28,-0.84,0.01,0.03,0.89,18326392
-1.26,-0.84,0.00,0.02,0.89,18330332
-1.25,-0.83,-0.00,0.01,0.89,18334279
-1.24,-0.82,-0.01,0.00,0.89,18338233
-1.24,-0.81,-0.02,-0.01,0.89,18342175
-1.25,-0.80,-0.02,-0.03,0.89,18346132
-1.26,-0.80,-0.01,-0.05,0.89,18350075
-1.27,-0.79,-0.00,-0.05,0.89,18354022
-1.28,-0.79,0.01,-0.05,0.90,18357975
-1.30,-0.79,0.01,-0.06,0.89,18361916
-1.32,-0.79,0.02,-0.08,0.90,18365872
-1.34,-0.80,0.02,-0.09,0.90,18369799
-1.36,-0.80,0.02,-0.08,0.90,18373744
-1.38,-0.81,0.03,-0.07,0.89,18377698
-1.39,-0.81,0.03,-0.06,0.90,18381636
-1.40,-0.82,0.03,-0.05,0.89,18385590
-1.41,-0.83,0.04,-0.05,0.90,18389523
-1.42,-0.84,0.04,-0.04,0.90,18393471
-1.42,-0.85,0.04,-0.02,0.89,18397426
-1.41,-0.85,0.04,-0.00,0.89,18401366
-1.40,-0.86,0.03,0.01,0.89,18405324
-1.39,-0.86,0.02,0.01,0.89,18409271
-1.37,-0.86,0.01,0.02,0.89,18413226
-1.35,-0.85,0.01,0.03,0.89,18417180
-1.33,-0.85,0.01,0.04,0.89,18421127
-1.31,-0.84,0.01,0.04,0.89,18425082
-1.29,-0.84,0.00,0.03,0.89,18429022
-1.28,-0.83,0.00,0.03,0.89,18432979
-1.26,-0.83,-0.00,0.02,0.89,18436925
-1.25,-0.82,-0.01,0.02,0.89,18440875
-1.24,-0.81,-0.01,0.01,0.89,18444830
-1.24,-0.80,-0.02,-0.01,0.89,18448770
-1.24,-0.79,-0.02,-0.03,0.89,18452722
-1.25,-0.78,-0.01,-0.05,0.89,18456672
-1.27,-0.78,-0.00,-0.05,0.89,18460615
-1.28,-0.78,0.00,-0.05,0.89,18464569
-1.29,-0.78,0.01,-0.06,0.89,18468515
-1.31,-0.78,0.02,-0.08,0.90,18472468
-1.34,-0.78,0.02,-0.09,0.90,18476411
-1.36,-0.79,0.02,-0.08,0.90,18480364
-1.37,-0.79,0.03,-0.07,0.89,18484327
-1.39,-0.80,0.03,-0.06,0.90,18488266
-1.40,-0.81,0.03,-0.05,0.89,18492222
-1.41,-0.82,0.04,-0.05,0.90,18496165
-1.41,-0.83,0.04,-0.04,0.90,18500117
-1.41,-0.84,0.04,-0.02,0.89,18504075
-1.40,-0.85,0.04,-0.00,0.90,18508015
-1.39,-0.85,0.03,0.01,0.89,18511964
-1.38,-0.85,0.02,0.01,0.89,18515910
-1.37,-0.85,0.01,0.02,0.89,18519859
-1.35,-0.85,0.01,0.03,0.89,18523800
-1.33,-0.85,0.01,0.04,0.89,18527742
-1.30,-0.84,0.01,0.04,0.89,18531688
-1.28,-0.84,0.01,0.04,0.89,18535633
-1.27,-0.84,0.00,0.03,0.89,18539584
-1.25,-0.83,-0.00,0.02,0.89,18543524
-1.24,-0.82,-0.01,0.02,0.89,18547479
-1.23,-0.81,-0.01,0.01,0.89,18551432
-1.23,-0.80,-0.01,-0.01,0.89,18555378
-1.24,-0.80,-0.01,-0.04,0.89,18559334
-1.25,-0.79,-0.01,-0.05,0.89,18563280
-1.26,-0.79,0.00,-0.05,0.89,18567229
-1.27,-0.79,0.01,-0.06,0.89,18571187
-1.29,-0.79,0.01,-0.07,0.89,18575132
-1.31,-0.79,0.02,-0.08,0.89,18579093
-1.33,-0.80,0.02,-0.09,0.90,18583029
-1.36,-0.80,0.02,-0.08,0.89,18586974
-1.37,-0.81,0.03,-0.07,0.90,18590926
-1.38,-0.82,0.03,-0.06,0.89,18594870
-1.39,-0.82,0.03,-0.05,0.90,18598819
-1.40,-0.83,0.03,-0.05,0.90,18602758
-1.41,-0.84,0.04,-0.04,0.90,18606709
-1.41,-0.85,0.04,-0.02,0.89,18610662
-1.40,-0.85,0.04,-0.00,0.90,18614599
-1.39,-0.86,0.03,0.01,0.89,18618553
-1.37,-0.86,0.02,0.02,0.89,18622497
-1.36,-0.86,0.01,0.02,0.89,18626454
-1.34,-0.86,0.01,0.03,0.89,18630392
-1.32,-0.85,0.01,0.04,0.89,18634343
-1.30,-0.85,0.00,0.04,0.89,18638292
-1.28,-0.84,-0.00,0.03,0.89,18642234
-1.26,-0.84,-0.00,0.03,0.89,18646183
-1.25,-0.83,-0.00,0.02,0.89,18650127
-1.24,-0.82,-0.01,0.01,0.89,18654077
-1.23,-0.81,-0.01,0.00,0.89,18658026
-1.23,-0.80,-0.02,-0.02,0.89,18661961
-1.24,-0.79,-0.02,-0.04,0.89,18665920
-1.25,-0.79,-0.01,-0.05,0.89,18669867
-1.26,-0.78,-0.00,-0.05,0.89,18673814
-1.27,-0.78,0.01,-0.06,0.89,18677770
-1.29,-0.78,0.01,-0.07,0.90,18681713
-1.31,-0.79,0.02,-0.08,0.90,18685664
-1.33,-0.79,0.02,-0.09,0.90,18689605
-1.36,-0.80,0.02,-0.08,0.89,18693551
-1.37,-0.80,0.03,-0.07,0.90,18697502
-1.38,-0.81,0.03,-0.06,0.89,18701443
-1.39,-0.82,0.03,-0.05,0.89,18705396
-1.40,-0.83,0.03,-0.05,0.90,18709341
-1.41,-0.83,0.04,-0.04,0.89,18713293
-1.41,-0.84,0.04,-0.02,0.89,18717246
-1.40,-0.85,0.04,-0.00,0.89,18721189
-1.39,-0.86,0.03,0.01,0.89,18725154
-1.37,-0.86,0.02,0.02,0.89,18729097
-1.36,-0.86,0.02,0.03,0.89,18733052
-1.34,-0.86,0.01,0.03,0.89,18736996
-1.32,-0.85,0.01,0.04,0.89,18740947
-1.30,-0.85,0.01,0.04,0.89,18744899
-1.28,-0.84,0.00,0.03,0.89,18748839
-1.26,-0.84,-0.00,0.02,0.89,18752796
-1.25,-0.83,-0.01,0.02,0.89,18756740
-1.24,-0.82,-0.01,0.01,0.89,18760690
-1.23,-0.82,-0.01,-0.00,0.89,18764638
-1.24,-0.81,-0.01,-0.02,0.89,18768592
-1.24,-0.80,-0.01,-0.04,0.89,18772543
-1.25,-0.79,-0.01,-0.05,0.89,18776491
-1.27,-0.79,0.00,-0.06,0.90,18780433
-1.28,-0.79,0.01,-0.06,0.90,18784390
-1.30,-0.79,0.02,-0.07,0.90,18788333
-1.32,-0.79,0.02,-0.08,0.90,18792289
-1.34,-0.79,0.02,-0.08,0.90,18796228
-1.36,-0.80,0.02,-0.08,0.90,18800170
-1.38,-0.81,0.03,-0.07,0.90,18804122
-1.39,-0.81,0.03,-0.06,0.90,18808069
-1.40,-0.82,0.03,-0.05,0.90,18812021
-1.41,-0.83,0.03,-0.05,0.90,18815965
-1.41,-0.83,0.03,-0.04,0.89,18819912
-1.41,-0.84,0.04,-0.02,0.90,18823856
-1.40,-0.85,0.03,-0.00,0.89,18827792
-1.39,-0.85,0.03,0.01,0.90,18831746
-1.38,-0.85,0.02,0.02,0.89,18835687
-1.36,-0.85,0.01,0.03,0.89,18839643
-1.34,-0.85,0.01,0.04,0.89,18843585
-1.32,-0.84,0.00,0.04,0.89,18847529
-1.30,-0.84,0.00,0.04,0.89,18851476
-1.28,-0.83,-0.00,0.03,0.89,18855414
-1.27,-0.82,-0.01,0.03,0.89,18859371
-1.25,-0.81,-0.01,0.02,0.89,18863319
-1.24,-0.81,-0.01,0.01,0.89,18867276
-1.24,-0.80,-0.01,-0.01,0.89,18871231
-1.24,-0.79,-0.02,-0.03,0.89,18875177
-1.25,-0.78,-0.01,-0.04,0.89,18879143
-1.26,-0.77,-0.01,-0.05,0.89,18883087
-1.27,-0.77,-0.00,-0.06,0.89,18887033
-1.29,-0.77,0.01,-0.06,0.90,18890989
-1.30,-0.77,0.01,-0.07,0.89,18894932
-1.32,-0.77,0.02,-0.08,0.90,18898889
-1.35,-0.78,0.02,-0.09,0.90,18902832
-1.37,-0.79,0.03,-0.08,0.90,18906780
-1.38,-0.79,0.03,-0.07,0.90,18910727
-1.39,-0.80,0.03,-0.06,0.90,18914661
-1.40,-0.81,0.03,-0.05,0.89,18918619
-1.41,-0.81,0.03,-0.04,0.90,18922563
-1.41,-0.82,0.03,-0.03,0.89,18926514
-1.41,-0.83,0.04,-0.01,0.89,18930462
-1.40,-0.84,0.03,0.00,0.89,18934404
-1.39,-0.84,0.03,0.01,0.89,18938357
-1.38,-0.84,0.02,0.02,0.89,18942302
-1.36,-0.84,0.02,0.03,0.89,18946262
-1.34,-0.84,0.01,0.04,0.89,18950208
-1.31,-0.84,0.00,0.04,0.89,18954156
-1.29,-0.83,0.00,0.04,0.89,18958113
-1.28,-0.82,-0.00,0.03,0.89,18962048
-1.26,-0.82,0.00,0.02,0.89,18965999
-1.25,-0.81,-0.00,0.02,0.89,18969943
-1.24,-0.81,-0.00,0.01,0.89,18973889
-1.23,-0.80,-0.01,-0.00,0.89,18977836
-1.24,-0.79,-0.01,-0.02,0.89,18981783
-1.24,-0.78,-0.01,-0.04,0.89,18985742
-1.26,-0.77,-0.01,-0.05,0.89,18989682
-1.27,-0.77,-0.00,-0.06,0.89,18993629
-1.28,-0.77,0.01,-0.06,0.89,18997589
-1.30,-0.77,0.02,-0.07,0.89,19001526
-1.32,-0.78,0.02,-0.08,0.90,19005482
-1.34,-0.78,0.03,-0.09,0.90,19009426
-1.36,-0.79,0.03,-0.08,0.89,19013379
-1.38,-0.80,0.03,-0.07,0.90,19017330
-1.39,-0.80,0.03,-0.06,0.89,19021270
-1.40,-0.81,0.03,-0.05,0.90,19025223
-1.41,-0.82,0.03,-0.04,0.90,19029167
-1.41,-0.82,0.04,-0.03,0.89,19033122
-1.41,-0.83,0.04,-0.01,0.90,19037067
-1.40,-0.84,0.03,0.01,0.90,19041005
-1.38,-0.84,0.02,0.01,0.89,19044960
-1.37,-0.84,0.02,0.02,0.90,19048905
-1.35,-0.84,0.01,0.03,0.89,19052856
-1.33,-0.84,0.01,0.04,0.89,19056800
-1.31,-0.83,0.00,0.05,0.89,19060752
-1.28,-0.83,0.00,0.04,0.89,19064706
-1.27,-0.82,-0.00,0.03,0.89,19068647
-1.25,-0.82,-0.00,0.02,0.89,19072600
-1.24,-0.81,-0.01,0.01,0.89,19076543
-1.23,-0.80,-0.01,0.01,0.89,19080483
-1.23,-0.79,-0.01,-0.01,0.89,19084438
-1.23,-0.78,-0.02,-0.03,0.89,19088378
-1.24,-0.77,-0.01,-0.05,0.89,19092337
-1.26,-0.77,-0.01,-0.06,0.89,19096281
-1.27,-0.77,0.00,-0.06,0.89,19100230
-1.29,-0.77,0.01,-0.07,0.89,19104191
-1.31,-0.77,0.02,-0.08,0.90,19108145
-1.33,-0.78,0.02,-0.09,0.90,19112103
-1.35,-0.78,0.02,-0.08,0.90,19116039
-1.37,-0.79,0.02,-0.08,0.89,19119995
-1.38,-0.80,0.03,-0.06,0.90,19123934
-1.39,-0.80,0.03,-0.06,0.89,19127881
-1.40,-0.81,0.03,-0.05,0.90,19131837
-1.41,-0.82,0.04,-0.04,0.89,19135787
-1.41,-0.83,0.04,-0.03,0.90,19139733
-1.40,-0.84,0.04,-0.00,0.89,19143674
-1.39,-0.84,0.03,0.01,0.89,19147619
-1.38,-0.85,0.02,0.02,0.89,19151578
-1.37,-0.85,0.02,0.02,0.89,19155519
-1.35,-0.85,0.01,0.03,0.89,19159479
-1.33,-0.84,0.01,0.04,0.89,19163423
-1.31,-0.84,0.01,0.04,0.89,19167378
-1.29,-0.84,0.01,0.04,0.89,19171341
-1.27,-0.84,0.01,0.03,0.89,19175287
-1.25,-0.83,-0.00,0.02,0.89,19179234
-1.24,-0.82,-0.01,0.01,0.89,19183174
-1.24,-0.81,-0.01,0.00,0.89,19187122
-1.24,-0.80,-0.02,-0.01,0.89,19191073
-1.24,-0.79,-0.02,-0.03,0.89,19195018
-1.25,-0.78,-0.01,-0.05,0.90,19198969
-1.26,-0.78,-0.00,-0.06,0.90,19202912
-1.28,-0.78,0.01,-0.06,0.90,19206856
-1.29,-0.78,0.02,-0.07,0.89,19210809
-1.31,-0.79,0.02,-0.08,0.90,19214754
-1.34,-0.79,0.02,-0.09,0.90,19218708
-1.36,-0.80,0.02,-0.08,0.90,19222643
-1.38,-0.80,0.03,-0.07,0.89,19226595
-1.39,-0.81,0.03,-0.06,0.90,19230539
-1.40,-0.82,0.03,-0.05,0.89,19234483
-1.41,-0.83,0.03,-0.05,0.90,19238442
-1.41,-0.83,0.04,-0.04,0.90,19242383
-1.41,-0.84,0.04,-0.03,0.89,19246338
-1.41,-0.85,0.04,-0.00,0.90,19250275
-1.40,-0.85,0.03,0.01,0.89,19254228
-1.38,-0.86,0.02,0.02,0.89,19258184
-1.37,-0.85,0.01,0.02,0.89,19262126
-1.35,-0.85,0.01,0.03,0.89,19266083
-1.33,-0.85,0.01,0.04,0.89,19270031
-1.30,-0.84,0.01,0.04,0.89,19273981
-1.29,-0.84,0.00,0.04,0.89,19277930
-1.27,-0.84,0.00,0.03,0.89,19281871
-1.26,-0.83,-0.01,0.02,0.89,19285830
-1.25,-0.82,-0.01,0.01,0.89,19289772
-1.24,-0.81,-0.02,-0.00,0.89,19293722
-1.24,-0.80,-0.02,-0.02,0.89,19297668
-1.25,-0.79,-0.02,-0.04,0.89,19301617
-1.26,-0.78,-0.01,-0.05,0.89,19305576
-1.27,-0.78,0.00,-0.06,0.89,19309521
-1.29,-0.78,0.01,-0.06,0.89,19313468
-1.31,-0.78,0.01,-0.07,0.89,19317419
-1.33,-0.79,0.02,-0.09,0.90,19321360
-1.35,-0.79,0.02,-0.09,0.89,19325320
-1.37,-0.80,0.02,-0.08,0.89,19329260
-1.39,-0.80,0.03,-0.07,0.90,19333206
-1.40,-0.81,0.03,-0.06,0.89,19337152
-1.41,-0.82,0.03,-0.06,0.90,19341101
-1.42,-0.83,0.04,-0.05,0.89,19345056
-1.42,-0.84,0.04,-0.04,0.90,19349000
-1.42,-0.84,0.04,-0.02,0.89,19352963
-1.41,-0.85,0.03,-0.00,0.90,19356904
-1.40,-0.85,0.03,0.01,0.89,19360852
-1.39,-0.86,0.02,0.02,0.89,19364805
-1.37,-0.85,0.01,0.03,0.89,19368754
-1.35,-0.85,0.01,0.04,0.89,19372712
-1.33,-0.85,0.01,0.05,0.89,19376651
-1.31,-0.85,0.01,0.04,0.89,19380601
-1.29,-0.84,0.00,0.03,0.89,19384541
-1.27,-0.84,0.00,0.03,0.89,19388484
-1.26,-0.83,-0.01,0.02,0.89,19392437
-1.25,-0.82,-0.01,0.01,0.89,19396381
-1.24,-0.81,-0.02,-0.01,0.89,19400343
-1.25,-0.80,-0.02,-0.03,0.89,19404290
-1.25,-0.79,-0.01,-0.04,0.89,19408236
-1.27,-0.79,-0.00,-0.05,0.90,19412188
-1.28,-0.79,0.01,-0.06,0.90,19416130
-1.30,-0.79,0.01,-0.06,0.89,19420080
-1.31,-0.79,0.02,-0.08,0.90,19424020
-1.34,-0.79,0.02,-0.09,0.90,19427966
-1.36,-0.79,0.02,-0.09,0.90,19431913
-1.38,-0.80,0.02,-0.08,0.89,19435859
-1.39,-0.80,0.02,-0.07,0.90,19439809
-1.40,-0.81,0.03,-0.06,0.89,19443752
-1.41,-0.82,0.03,-0.05,0.90,19447701
-1.42,-0.83,0.04,-0.04,0.90,19451656
-1.42,-0.83,0.04,-0.03,0.90,19455597
-1.42,-0.84,0.04,-0.01,0.89,19459552
-1.41,-0.85,0.03,0.00,0.89,19463496
-1.40,-0.85,0.02,0.01,0.89,19467447
-1.38,-0.85,0.01,0.02,0.89,19471410
-1.36,-0.84,0.01,0.03,0.89,19475355
-1.34,-0.84,0.01,0.04,0.89,19479314
-1.32,-0.84,0.01,0.04,0.89,19483261
-1.30,-0.84,0.01,0.04,0.89,19487210
-1.28,-0.83,0.00,0.03,0.89,19491149
-1.27,-0.82,-0.00,0.02,0.89,19495096
-1.26,-0.82,-0.01,0.02,0.89,19499050
-1.25,-0.81,-0.01,0.00,0.89,19502987
-1.24,-0.80,-0.01,-0.01,0.89,19506941
-1.25,-0.79,-0.01,-0.03,0.89,19510885
-1.25,-0.78,-0.01,-0.04,0.89,19514835
-1.27,-0.78,-0.00,-0.05,0.89,19518789
-1.28,-0.78,0.01,-0.06,0.89,19522737
-1.30,-0.78,0.01,-0.07,0.89,19526695
-1.32,-0.79,0.02,-0.08,0.90,19530636
-1.34,-0.79,0.02,-0.09,0.89,19534586
-1.36,-0.79,0.02,-0.08,0.90,19538536
-1.38,-0.80,0.03,-0.08,0.89,19542484
-1.39,-0.81,0.03,-0.07,0.90,19546440
-1.41,-0.81,0.03,-0.06,0.89,19550377
-1.42,-0.82,0.04,-0.05,0.90,19554332
-1.42,-0.83,0.04,-0.04,0.90,19558291
-1.42,-0.84,0.04,-0.02,0.89,19562238
-1.42,-0.85,0.04,-0.00,0.90,19566189
-1.40,-0.85,0.03,0.01,0.89,19570136
-1.39,-0.86,0.02,0.02,0.89,19574092
-1.37,-0.85,0.01,0.02,0.89,19578041
-1.36,-0.85,0.01,0.03,0.89,19581984
-1.33,-0.85,0.01,0.04,0.89,19585945
-1.31,-0.85,0.01,0.04,0.89,19589899
-1.29,-0.85,0.01,0.04,0.89,19593856
-1.27,-0.84,0.00,0.03,0.89,19597796
-1.26,-0.83,-0.01,0.02,0.89,19601744
-1.25,-0.83,-0.01,0.01,0.89,19605701
-1.24,-0.81,-0.02,0.00,0.89,19609636
-1.24,-0.80,-0.02,-0.01,0.89,19613587
-1.24,-0.80,-0.01,-0.03,0.89,19617526
-1.25,-0.79,-0.00,-0.05,0.89,19621476
-1.27,-0.79,0.00,-0.06,0.90,19625421
-1.28,-0.79,0.01,-0.06,0.89,19629369
-1.30,-0.79,0.01,-0.07,0.90,19633322
-1.32,-0.79,0.02,-0.08,0.89,19637277
-1.34,-0.80,0.02,-0.09,0.90,19641225
-1.36,-0.80,0.02,-0.08,0.89,19645165
-1.38,-0.81,0.03,-0.07,0.90,19649109
-1.39,-0.82,0.03,-0.06,0.90,19653058
-1.41,-0.82,0.03,-0.06,0.90,19656999
-1.41,-0.83,0.04,-0.05,0.90,19660947
-1.42,-0.84,0.04,-0.04,0.90,19664902
-1.42,-0.85,0.04,-0.02,0.89,19668849
-1.41,-0.85,0.03,-0.00,0.90,19672799
-1.40,-0.86,0.02,0.01,0.89,19676740
-1.38,-0.86,0.02,0.02,0.89,19680690
-1.37,-0.86,0.01,0.03,0.89,19684637
-1.35,-0.85,0.01,0.04,0.89,19688586
-1.32,-0.85,0.01,0.04,0.89,19692540
-1.30,-0.85,0.01,0.04,0.89,19696484
-1.28,-0.84,0.00,0.04,0.89,19700434
-1.27,-0.84,-0.00,0.03,0.89,19704372
-1.25,-0.83,-0.01,0.02,0.89,19708329
-1.24,-0.82,-0.01,0.01,0.89,19712285
-1.24,-0.81,-0.01,-0.00,0.89,19716226
-1.24,-0.80,-0.01,-0.02,0.89,19720176
-1.24,-0.80,-0.01,-0.04,0.89,19724112
-1.26,-0.79,-0.00,-0.05,0.89,19728062
-1.27,-0.79,0.00,-0.06,0.89,19732017
-1.29,-0.79,0.01,-0.06,0.89,19735957
-1.30,-0.79,0.01,-0.07,0.90,19739907
-1.33,-0.79,0.02,-0.09,0.90,19743843
-1.35,-0.80,0.02,-0.09,0.90,19747788
-1.37,-0.81,0.03,-0.08,0.89,19751746
-1.38,-0.81,0.03,-0.07,0.90,19755681
-1.40,-0.82,0.04,-0.06,0.89,19759636
-1.41,-0.83,0.04,-0.06,0.90,19763572
-1.42,-0.84,0.04,-0.05,0.90,19767520
-1.42,-0.85,0.04,-0.03,0.90,19771473
-1.41,-0.85,0.03,-0.01,0.89,19775423
-1.41,-0.86,0.03,0.00,0.89,19779380
-1.39,-0.86,0.02,0.01,0.89,19783325
-1.38,-0.86,0.02,0.02,0.89,19787282
-1.36,-0.86,0.02,0.03,0.89,19791232
-1.34,-0.86,0.01,0.04,0.89,19795188
-1.32,-0.86,0.01,0.05,0.89,19799141
-1.30,-0.85,0.00,0.04,0.89,19803082
-1.28,-0.85,-0.00,0.03,0.89,19807038
-1.26,-0.84,-0.01,0.03,0.89,19810982
-1.25,-0.83,-0.01,0.02,0.89,19814930
-1.24,-0.82,-0.01,0.01,0.89,19818881
-1.24,-0.81,-0.01,-0.01,0.89,19822828
-1.24,-0.81,-0.01,-0.03,0.89,19826787
-1.25,-0.80,-0.01,-0.04,0.89,19830725
-1.26,-0.80,-0.00,-0.05,0.89,19834669
-1.28,-0.79,0.00,-0.06,0.89,19838621
-1.29,-0.79,0.01,-0.07,0.89,19842561
-1.32,-0.80,0.01,-0.08,0.89,19846517
-1.34,-0.80,0.02,-0.09,0.89,19850461
-1.36,-0.80,0.02,-0.08,0.89,19854406
-1.38,-0.81,0.03,-0.08,0.89,19858366
-1.39,-0.82,0.03,-0.07,0.89,19862314
-1.41,-0.82,0.03,-0.06,0.90,19866264
-1.42,-0.83,0.03,-0.05,0.89,19870211
-1.42,-0.84,0.03,-0.04,0.90,19874161
-1.42,-0.84,0.03,-0.03,0.89,19878114
-1.42,-0.85,0.03,-0.01,0.90,19882054
-1.41,-0.86,0.03,0.01,0.89,19886008
-1.39,-0.86,0.02,0.02,0.89,19889953
-1.38,-0.86,0.02,0.02,0.89,19893907
-1.36,-0.86,0.02,0.03,0.89,19897853
-1.34,-0.86,0.01,0.04,0.89,19901804
-1.31,-0.85,0.01,0.05,0.89,19905762
-1.29,-0.85,0.00,0.04,0.89,19909478
-1.28,-0.84,-0.00,0.03,0.89,19913437
-1.26,-0.83,-0.01,0.02,0.89,19917379
-1.25,-0.83,-0.01,0.01,0.89,19921332
-1.24,-0.82,-0.01,0.00,0.89,19925278
-1.24,-0.81,-0.01,-0.02,0.89,19929232
-1.25,-0.80,-0.01,-0.03,0.89,19933190
-1.26,-0.80,-0.00,-0.05,0.89,19937130
-1.27,-0.80,0.00,-0.05,0.90,19941070
-1.28,-0.80,0.01,-0.06,0.89,19945023
-1.30,-0.80,0.01,-0.07,0.90,19948955
-1.32,-0.80,0.02,-0.08,0.90,19952904
-1.35,-0.80,0.02,-0.09,0.90,19956844
-1.37,-0.81,0.03,-0.08,0.90,19960793
-1.38,-0.82,0.03,-0.07,0.90,19964739
-1.40,-0.82,0.03,-0.06,0.89,19968678
-1.41,-0.83,0.03,-0.06,0.90,19972634
-1.42,-0.84,0.04,-0.05,0.90,19976582
-1.42,-0.85,0.04,-0.04,0.90,19980542
-1.42,-0.86,0.04,-0.02,0.90,19984486
-1.41,-0.86,0.03,-0.00,0.90,19988426
-1.40,-0.87,0.03,0.01,0.89,19992380
-1.39,-0.87,0.02,0.02,0.90,19996328
-1.37,-0.87,0.02,0.03,0.89,20000286
-1.35,-0.87,0.01,0.04,0.89,20004234
-1.33,-0.86,0.01,0.05,0.89,20008185
-1.31,-0.86,0.00,0.04,0.89,20012133
-1.29,-0.85,0.00,0.03,0.89,20016070
-1.27,-0.84,-0.00,0.03,0.89,20020029
-1.26,-0.84,-0.00,0.02,0.89,20023973
-1.25,-0.83,-0.01,0.01,0.89,20027923
-1.24,-0.82,-0.01,-0.00,0.89,20031872
-1.24,-0.81,-0.01,-0.02,0.89,20035822
-1.25,-0.80,-0.01,-0.04,0.89,20039771
-1.26,-0.80,-0.01,-0.05,0.89,20043711
-1.27,-0.79,-0.00,-0.06,0.89,20047658
-1.29,-0.79,0.01,-0.07,0.89,20051622
-1.31,-0.79,0.01,-0.08,0.89,20055563
-1.33,-0.80,0.02,-0.09,0.89,20059511
-1.35,-0.80,0.02,-0.09,0.90,20063449
-1.37,-0.81,0.02,-0.08,0.89,20067402
-1.39,-0.81,0.03,-0.07,0.90,20071346
-1.40,-0.82,0.03,-0.06,0.89,20075291
-1.41,-0.83,0.03,-0.05,0.89,20079247
-1.42,-0.83,0.04,-0.04,0.90,20083184
-1.42,-0.84,0.04,-0.03,0.89,20087149
-1.42,-0.85,0.04,-0.01,0.90,20091099
-1.41,-0.86,0.03,0.00,0.89,20095047
-1.39,-0.86,0.02,0.01,0.89,20099003
-1.38,-0.86,0.01,0.02,0.89,20102948
-1.36,-0.86,0.01,0.03,0.89,20106908
-1.34,-0.85,0.01,0.04,0.89,20110845
-1.31,-0.85,0.01,0.05,0.89,20114798
-1.29,-0.85,0.01,0.04,0.89,20118745
-1.27,-0.84,0.01,0.03,0.89,20122692
-1.26,-0.84,0.00,0.02,0.89,20126642
-1.25,-0.83,-0.00,0.02,0.89,20130585
-1.24,-0.82,-0.01,0.01,0.89,20134539
-1.23,-0.81,-0.01,-0.01,0.89,20138493
-1.24,-0.80,-0.02,-0.03,0.89,20142440
-1.25,-0.80,-0.01,-0.05,0.89,20146392
-1.26,-0.79,-0.00,-0.06,0.89,20150330
-1.27,-0.79,0.01,-0.06,0.89,20154280
-1.29,-0.79,0.02,-0.07,0.89,20158227
-1.31,-0.80,0.02,-0.08,0.90,20162167
-1.34,-0.80,0.02,-0.09,0.90,20166116
-1.36,-0.81,0.02,-0.08,0.90,20170058
-1.37,-0.81,0.02,-0.07,0.89,20174017
-1.39,-0.82,0.03,-0.06,0.89,20177961
-1.40,-0.83,0.04,-0.06,0.90,20181905
-1.41,-0.84,0.04,-0.05,0.90,20185862
-1.42,-0.85,0.04,-0.04,0.90,20189809
-1.41,-0.86,0.04,-0.02,0.89,20193759
-1.41,-0.86,0.04,-0.00,0.90,20197703
-1.40,-0.87,0.03,0.01,0.89,20201643
-1.38,-0.87,0.01,0.02,0.89,20205604
-1.37,-0.86,0.01,0.02,0.89,20209546
-1.35,-0.86,0.01,0.04,0.89,20213504
-1.33,-0.86,0.01,0.05,0.89,20217449
-1.30,-0.86,0.01,0.05,0.89,20221395
-1.28,-0.85,0.01,0.04,0.89,20225346
-1.27,-0.85,0.00,0.03,0.89,20229296
-1.25,-0.84,-0.00,0.02,0.89,20233255
-1.24,-0.83,-0.01,0.02,0.89,20237203
-1.23,-0.82,-0.02,0.00,0.89,20241157
-1.23,-0.81,-0.02,-0.02,0.89,20245104
-1.24,-0.80,-0.02,-0.04,0.89,20249057
-1.25,-0.79,-0.01,-0.05,0.89,20253015
-1.26,-0.79,0.00,-0.06,0.90,20256953
-1.28,-0.79,0.01,-0.06,0.89,20260909
-1.30,-0.80,0.02,-0.08,0.90,20264842
-1.32,-0.80,0.02,-0.09,0.90,20268789
-1.35,-0.80,0.02,-0.09,0.90,20272741
-1.36,-0.80,0.02,-0.08,0.89,20276680
-1.38,-0.81,0.02,-0.07,0.90,20280632
-1.39,-0.82,0.03,-0.06,0.89,20284580
-1.40,-0.83,0.03,-0.06,0.90,20288518
-1.41,-0.83,0.04,-0.05,0.90,20292466
-1.42,-0.84,0.04,-0.04,0.90,20296409
-1.42,-0.85,0.04,-0.02,0.89,20300372
-1.41,-0.86,0.03,-0.00,0.89,20304317
-1.40,-0.86,0.03,0.01,0.89,20308270
-1.38,-0.86,0.02,0.02,0.89,20312225
-1.36,-0.86,0.01,0.03,0.89,20316172
-1.34,-0.86,0.01,0.04,0.89,20320117
-1.32,-0.86,0.01,0.05,0.89,20324063
-1.30,-0.85,0.01,0.04,0.89,20328021
-1.28,-0.85,0.01,0.03,0.89,20331968
-1.26,-0.84,-0.00,0.03,0.89,20335915
-1.25,-0.84,-0.01,0.02,0.89,20339871
-1.24,-0.83,-0.01,0.01,0.89,20343819
-1.23,-0.82,-0.01,-0.01,0.89,20347773
-1.24,-0.81,-0.01,-0.03,0.89,20351715
-1.25,-0.80,-0.01,-0.04,0.89,20355661
-1.26,-0.80,0.00,-0.05,0.89,20359606
-1.27,-0.80,0.01,-0.06,0.90,20363542
-1.29,-0.80,0.01,-0.07,0.89,20367502
-1.31,-0.81,0.02,-0.08,0.90,20371444
-1.34,-0.81,0.02,-0.09,0.90,20375391
-1.36,-0.81,0.02,-0.09,0.90,20379342
-1.38,-0.82,0.02,-0.08,0.90,20383290
-1.39,-0.82,0.03,-0.06,0.90,20387244
-1.40,-0.83,0.03,-0.06,0.90,20391179
-1.41,-0.84,0.03,-0.05,0.90,20395130
-1.42,-0.85,0.04,-0.04,0.90,20399086
-1.42,-0.85,0.04,-0.03,0.90,20403030
-1.41,-0.86,0.03,-0.01,0.90,20406981
-1.40,-0.87,0.03,0.01,0.89,20410919
-1.39,-0.87,0.02,0.02,0.89,20414873
-1.37,-0.87,0.02,0.02,0.89,20418826
-1.36,-0.87,0.01,0.04,0.89,20422775
-1.33,-0.86,0.01,0.04,0.89,20426732
-1.31,-0.86,0.01,0.04,0.89,20430679
-1.29,-0.85,-0.00,0.04,0.89,20434624
-1.27,-0.85,-0.00,0.03,0.89,20438561
-1.26,-0.84,-0.01,0.02,0.89,20442510
-1.25,-0.83,-0.01,0.02,0.89,20446465
-1.24,-0.82,-0.01,0.00,0.89,20450408
-1.24,-0.81,-0.02,-0.02,0.89,20454367
-1.24,-0.80,-0.01,-0.04,0.89,20458313
-1.26,-0.79,-0.01,-0.05,0.89,20462265
-1.27,-0.79,0.00,-0.06,0.89,20466219
-1.28,-0.79,0.01,-0.06,0.89,20470164
-1.30,-0.79,0.01,-0.07,0.90,20474113
-1.32,-0.80,0.02,-0.08,0.89,20478054
-1.35,-0.80,0.02,-0.09,0.90,20481994
-1.37,-0.80,0.02,-0.09,0.89,20485952
-1.39,-0.81,0.03,-0.08,0.90,20489895
-1.40,-0.82,0.03,-0.06,0.89,20493847
-1.41,-0.82,0.03,-0.06,0.90,20497789
-1.42,-0.83,0.03,-0.05,0.89,20501743
-1.42,-0.84,0.03,-0.04,0.90,20505698
-1.42,-0.85,0.04,-0.02,0.89,20509637
-1.41,-0.85,0.03,-0.00,0.90,20513587
-1.40,-0.86,0.03,0.01,0.89,20517529
-1.39,-0.86,0.02,0.02,0.89,20521476
-1.37,-0.86,0.02,0.03,0.89,20525426
-1.35,-0.86,0.01,0.04,0.89,20529374
-1.32,-0.86,0.01,0.05,0.89,20533334
-1.30,-0.85,0.01,0.04,0.89,20537276
-1.28,-0.85,0.00,0.03,0.89,20541220
-1.27,-0.84,-0.00,0.03,0.89,20545162
-1.25,-0.84,-0.01,0.02,0.89,20549112
-1.24,-0.83,-0.01,0.01,0.89,20553075
-1.24,-0.82,-0.01,-0.01,0.89,20557019
-1.24,-0.81,-0.01,-0.03,0.89,20560977
-1.25,-0.80,-0.01,-0.04,0.89,20564920
-1.26,-0.80,-0.00,-0.05,0.89,20568860
-1.27,-0.80,0.00,-0.06,0.90,20572805
-1.29,-0.80,0.01,-0.07,0.89,20576752
-1.31,-0.80,0.02,-0.08,0.90,20580707
-1.33,-0.81,0.02,-0.09,0.90,20584652
-1.36,-0.81,0.02,-0.09,0.90,20588599
-1.37,-0.81,0.02,-0.08,0.89,20592564
-1.39,-0.82,0.03,-0.07,0.90,20596507
-1.40,-0.83,0.03,-0.06,0.89,20600460
-1.41,-0.83,0.03,-0.05,0.90,20604400
-1.42,-0.84,0.04,-0.04,0.90,20608351
-1.42,-0.85,0.03,-0.03,0.90,20612312
-1.42,-0.86,0.03,-0.01,0.90,20616253
-1.41,-0.86,0.03,0.00,0.89,20620207
-1.40,-0.86,0.02,0.01,0.89,20624144
-1.38,-0.86,0.01,0.02,0.89,20628103
-1.36,-0.86,0.01,0.04,0.89,20632050
-1.34,-0.85,0.01,0.05,0.89,20635999
-1.31,-0.85,0.01,0.05,0.89,20639948
-1.29,-0.85,0.00,0.04,0.89,20643886
-1.28,-0.84,0.00,0.03,0.89,20647838
-1.26,-0.83,-0.01,0.02,0.89,20651783
-1.25,-0.82,-0.01,0.02,0.89,20655731
-1.24,-0.81,-0.02,0.00,0.89,20659684
-1.24,-0.80,-0.02,-0.01,0.89,20663623
-1.24,-0.79,-0.02,-0.03,0.89,20667574
-1.25,-0.79,-0.01,-0.05,0.89,20671518
-1.27,-0.78,0.00,-0.06,0.89,20675238
-1.28,-0.78,0.01,-0.06,0.89,20679196
-1.30,-0.79,0.02,-0.08,0.90,20683133
-1.32,-0.79,0.02,-0.09,0.90,20687089
-1.35,-0.79,0.02,-0.09,0.90,20691036
-1.37,-0.80,0.02,-0.08,0.90,20694979
-1.38,-0.80,0.02,-0.07,0.90,20698918
-1.40,-0.81,0.03,-0.06,0.90,20702859
-1.41,-0.82,0.03,-0.06,0.90,20706808
-1.42,-0.82,0.04,-0.05,0.90,20710751
-1.42,-0.84,0.04,-0.04,0.90,20714693
-1.42,-0.85,0.04,-0.02,0.89,20718649
-1.42,-0.85,0.04,-0.00,0.90,20722585
-1.40,-0.86,0.03,0.01,0.89,20726535
-1.39,-0.86,0.02,0.02,0.89,20730479
-1.37,-0.86,0.01,0.03,0.89,20734437
-1.35,-0.86,0.01,0.04,0.89,20738375
-1.33,-0.86,0.01,0.05,0.89,20742326
-1.31,-0.85,0.01,0.05,0.89,20746283
-1.29,-0.85,0.01,0.04,0.89,20750233
-1.27,-0.85,0.00,0.03,0.89,20754182
-1.26,-0.84,-0.01,0.02,0.89,20758127
-1.24,-0.83,-0.01,0.01,0.89,20762077
-1.24,-0.82,-0.02,-0.00,0.89,20766016
-1.24,-0.81,-0.02,-0.02,0.89,20769963
-1.25,-0.80,-0.01,-0.04,0.89,20773913
-1.26,-0.80,0.00,-0.05,0.89,20777848
-1.27,-0.80,0.01,-0.06,0.90,20781793
-1.29,-0.80,0.02,-0.07,0.89,20785739
-1.31,-0.80,0.02,-0.08,0.90,20789678
-1.33,-0.81,0.02,-0.09,0.90,20793633
-1.36,-0.81,0.02,-0.09,0.90,20797574
-1.38,-0.81,0.02,-0.08,0.89,20801528
-1.39,-0.82,0.02,-0.07,0.90,20805475
-1.40,-0.82,0.03,-0.06,0.89,20809422
-1.41,-0.83,0.03,-0.06,0.90,20813377
-1.42,-0.84,0.04,-0.05,0.90,20817325
-1.43,-0.85,0.04,-0.03,0.90,20821279
-1.42,-0.86,0.04,-0.01,0.89,20825222
-1.41,-0.86,0.03,0.01,0.89,20829174
-1.40,-0.86,0.02,0.01,0.89,20833126
-1.39,-0.86,0.01,0.02,0.89,20837074
-1.37,-0.86,0.01,0.03,0.89,20841027
-1.34,-0.86,0.01,0.04,0.89,20844975
-1.32,-0.85,0.01,0.05,0.89,20848927
-1.30,-0.85,0.01,0.04,0.89,20852869
-1.28,-0.85,0.00,0.03,0.89,20856809
-1.27,-0.84,-0.00,0.02,0.89,20860762
-1.26,-0.83,-0.01,0.02,0.89,20864702
-1.25,-0.82,-0.02,0.01,0.89,20868657
-1.25,-0.81,-0.02,-0.01,0.89,20872597
-1.25,-0.80,-0.02,-0.04,0.89,20876547
-1.26,-0.79,-0.01,-0.05,0.90,20880506
-1.27,-0.79,0.00,-0.05,0.89,20884446
-1.29,-0.79,0.01,-0.06,0.90,20888399
-1.30,-0.79,0.01,-0.07,0.89,20892349
-1.33,-0.79,0.02,-0.09,0.89,20896297
-1.35,-0.79,0.02,-0.09,0.90,20900244
-1.37,-0.80,0.02,-0.09,0.89,20904173
-1.39,-0.80,0.02,-0.07,0.89,20908127
-1.40,-0.81,0.03,-0.06,0.90,20912067
-1.42,-0.82,0.03,-0.06,0.90,20916018
-1.43,-0.82,0.04,-0.06,0.90,20919974
-1.43,-0.83,0.04,-0.04,0.90,20923919
-1.43,-0.84,0.04,-0.02,0.89,20927876
-1.43,-0.85,0.04,-0.00,0.90,20931817
-1.42,-0.85,0.03,0.01,0.89,20935765
-1.40,-0.86,0.02,0.02,0.89,20939711
-1.38,-0.86,0.01,0.03,0.89,20943663
-1.36,-0.85,0.01,0.04,0.89,20947616
-1.34,-0.85,0.01,0.05,0.89,20951561
-1.32,-0.85,0.01,0.04,0.89,20955520
-1.30,-0.85,0.01,0.03,0.89,20959460
-1.28,-0.84,0.01,0.03,0.89,20963411
-1.27,-0.83,-0.00,0.03,0.89,20967364
-1.25,-0.83,-0.01,0.01,0.89,20971306
-1.25,-0.82,-0.02,-0.01,0.89,20975264
-1.25,-0.80,-0.02,-0.03,0.89,20979206
-1.26,-0.80,-0.01,-0.04,0.89,20983147
-1.27,-0.79,-0.01,-0.05,0.89,20987104
-1.29,-0.79,0.00,-0.06,0.89,20991046
-1.30,-0.79,0.01,-0.06,0.89,20995003
-1.32,-0.79,0.01,-0.08,0.90,20998948
-1.34,-0.79,0.01,-0.09,0.90,21002900
-1.37,-0.79,0.02,-0.09,0.90,21006840
-1.39,-0.80,0.02,-0.08,0.89,21010780
-1.40,-0.80,0.02,-0.07,0.90,21014725
-1.41,-0.81,0.03,-0.06,0.90,21018669
-1.42,-0.82,0.03,-0.05,0.90,21022621
-1.43,-0.83,0.04,-0.04,0.90,21026571
-1.43,-0.84,0.04,-0.03,0.90,21030516
-1.43,-0.84,0.03,-0.01,0.89,21034473
-1.42,-0.85,0.03,0.00,0.89,21038415
-1.41,-0.85,0.02,0.01,0.89,21042374
-1.39,-0.85,0.02,0.02,0.89,21046339
-1.37,-0.85,0.01,0.04,0.89,21050288
-1.35,-0.85,0.01,0.05,0.89,21054248
-1.33,-0.84,0.01,0.05,0.89,21058195
-1.31,-0.84,0.01,0.04,0.89,21062148
-1.29,-0.83,0.00,0.03,0.89,21066081
-1.27,-0.83,-0.00,0.03,0.89,21070029
-1.26,-0.82,-0.01,0.02,0.89,21073984
-1.25,-0.81,-0.02,0.01,0.89,21077925
-1.24,-0.80,-0.02,-0.01,0.89,21081879
-1.25,-0.79,-0.02,-0.03,0.89,21085818
-1.26,-0.78,-0.01,-0.05,0.90,21089766
-1.27,-0.78,0.00,-0.05,0.89,21093721
-1.28,-0.78,0.01,-0.06,0.89,21097665
-1.30,-0.78,0.02,-0.07,0.89,21101625
-1.32,-0.79,0.02,-0.09,0.90,21105564
-1.35,-0.79,0.02,-0.09,0.89,21109513
-1.37,-0.79,0.02,-0.09,0.90,21113464
-1.39,-0.80,0.02,-0.07,0.89,21117407
-1.40,-0.80,0.03,-0.06,0.90,21121356
-1.41,-0.81,0.03,-0.06,0.89,21125301
-1.42,-0.82,0.03,-0.05,0.90,21129253
-1.43,-0.83,0.04,-0.04,0.90,21133213
-1.43,-0.84,0.04,-0.02,0.89,21137154
-1.42,-0.84,0.03,-0.00,0.89,21141107
-1.41,-0.85,0.03,0.01,0.89,21145056
-1.39,-0.85,0.02,0.02,0.89,21149005
-1.38,-0.85,0.02,0.03,0.89,21152954
-1.36,-0.85,0.01,0.04,0.89,21156905
-1.33,-0.85,0.01,0.05,0.89,21160856
-1.31,-0.84,0.01,0.04,0.89,21164805
-1.29,-0.84,0.00,0.04,0.89,21168755
-1.28,-0.83,0.00,0.03,0.89,21172697
-1.26,-0.83,-0.00,0.02,0.89,21176649
-1.25,-0.82,-0.01,0.02,0.89,21180605
-1.24,-0.81,-0.01,0.00,0.89,21184548
-1.24,-0.80,-0.02,-0.02,0.89,21188505
-1.25,-0.79,-0.02,-0.04,0.89,21192444
-1.26,-0.79,-0.01,-0.05,0.89,21196395
-1.27,-0.78,0.00,-0.06,0.89,21200353
-1.29,-0.78,0.01,-0.06,0.89,21204307
-1.31,-0.79,0.02,-0.08,0.90,21208255
-1.33,-0.79,0.02,-0.09,0.90,21212204
-1.35,-0.80,0.02,-0.09,0.90,21216146
-1.38,-0.80,0.02,-0.08,0.90,21220089
-1.39,-0.81,0.03,-0.07,0.90,21224035
-1.40,-0.81,0.03,-0.06,0.90,21227979
-1.42,-0.82,0.03,-0.06,0.90,21231919
-1.42,-0.83,0.04,-0.05,0.90,21235872
-1.43,-0.84,0.04,-0.03,0.90,21239819
-1.42,-0.85,0.03,-0.01,0.89,21243757
-1.41,-0.85,0.03,0.00,0.90,21247705
-1.40,-0.85,0.02,0.01,0.89,21251648
-1.39,-0.85,0.02,0.02,0.90,21255601
-1.37,-0.85,0.01,0.03,0.89,21259550
-1.35,-0.85,0.01,0.04,0.89,21263500
-1.32,-0.85,0.01,0.05,0.89,21267453
-1.30,-0.85,0.01,0.04,0.89,21271398
-1.28,-0.84,0.00,0.03,0.89,21275354
-1.27,-0.83,-0.00,0.03,0.89,21279297
-1.25,-0.83,-0.01,0.02,0.89,21283244
-1.24,-0.82,-0.01,0.01,0.89,21287200
-1.24,-0.81,-0.01,-0.01,0.89,21291146
-1.24,-0.80,-0.01,-0.03,0.89,21295094
-1.25,-0.79,-0.01,-0.05,0.89,21299039
-1.26,-0.79,-0.00,-0.05,0.89,21302990
-1.28,-0.79,0.00,-0.06,0.89,21306938
-1.29,-0.79,0.01,-0.07,0.89,21310899
-1.32,-0.79,0.02,-0.08,0.90,21314849
-1.34,-0.79,0.02,-0.09,0.89,21318793
-1.36,-0.80,0.02,-0.08,0.90,21322740
-1.38,-0.80,0.03,-0.07,0.89,21326690
-1.39,-0.81,0.03,-0.06,0.90,21330630
-1.40,-0.82,0.03,-0.06,0.89,21334579
-1.41,-0.83,0.04,-0.05,0.90,21338517
-1.42,-0.84,0.04,-0.04,0.89,21342478
-1.42,-0.84,0.04,-0.02,0.89,21346426
-1.41,-0.85,0.04,-0.01,0.89,21350382
-1.40,-0.86,0.03,0.00,0.89,21354336
-1.39,-0.86,0.02,0.01,0.89,21358287
-1.38,-0.86,0.01,0.02,0.89,21362241
-1.36,-0.85,0.01,0.03,0.89,21366185
-1.33,-0.85,0.01,0.05,0.89,21370129
-1.31,-0.85,0.01,0.04,0.89,21374084
-1.29,-0.85,0.01,0.04,0.89,21378030
-1.27,-0.84,0.01,0.03,0.89,21381984
-1.26,-0.84,-0.00,0.02,0.89,21385933
-1.25,-0.83,-0.01,0.02,0.89,21389886
-1.24,-0.82,-0.01,0.00,0.89,21393826
-1.24,-0.81,-0.02,-0.02,0.89,21397777
-1.24,-0.80,-0.02,-0.04,0.89,21401735
-1.25,-0.79,-0.01,-0.05,0.89,21405675
-1.27,-0.79,0.00,-0.06,0.89,21409624
-1.28,-0.79,0.01,-0.06,0.89,21413569
-1.30,-0.79,0.01,-0.08,0.89,21417509
-1.32,-0.80,0.02,-0.09,0.90,21421457
-1.35,-0.80,0.02,-0.09,0.90,21425390
-1.36,-0.80,0.02,-0.08,0.90,21429346
-1.38,-0.81,0.02,-0.07,0.90,21433290
-1.39,-0.81,0.03,-0.06,0.90,21437244
-1.40,-0.82,0.03,-0.06,0.90,21441193
-1.41,-0.83,0.04,-0.05,0.90,21445139
-1.42,-0.84,0.04,-0.04,0.90,21449095
-1.42,-0.85,0.04,-0.02,0.89,21453047
-1.41,-0.86,0.03,-0.00,0.90,21456993
-1.40,-0.86,0.02,0.01,0.89,21460943
-1.38,-0.86,0.01,0.02,0.89,21464892
-1.37,-0.86,0.01,0.03,0.89,21468845
-1.34,-0.85,0.01,0.04,0.89,21472795
-1.32,-0.85,0.01,0.05,0.89,21476743
-1.30,-0.85,0.01,0.04,0.89,21480685
-1.28,-0.85,0.01,0.04,0.89,21484636
-1.26,-0.84,0.00,0.03,0.89,21488582
-1.25,-0.83,-0.01,0.02,0.89,21492526
-1.24,-0.82,-0.01,0.01,0.89,21496484
-1.24,-0.81,-0.02,-0.01,0.89,21500427
-1.24,-0.80,-0.02,-0.03,0.89,21504372
-1.25,-0.80,-0.01,-0.04,0.89,21508326
-1.26,-0.79,-0.00,-0.05,0.89,21512269
-1.27,-0.79,0.01,-0.06,0.89,21516227
-1.29,-0.79,0.01,-0.07,0.89,21520176
-1.31,-0.79,0.01,-0.08,0.89,21524126
-1.33,-0.80,0.01,-0.09,0.89,21528075
-1.36,-0.80,0.02,-0.09,0.90,21532016
-1.37,-0.80,0.02,-0.08,0.89,21535967
-1.39,-0.81,0.03,-0.07,0.90,21539911
-1.40,-0.82,0.03,-0.06,0.89,21543856
-1.41,-0.82,0.03,-0.06,0.90,21547807
-1.42,-0.83,0.04,-0.05,0.89,21551753
-1.42,-0.84,0.04,-0.03,0.90,21555710
-1.42,-0.85,0.03,-0.01,0.89,21559657
-1.41,-0.85,0.03,0.00,0.89,21563609
-1.40,-0.85,0.02,0.01,0.89,21567563
-1.38,-0.86,0.02,0.02,0.89,21571507
-1.36,-0.85,0.02,0.04,0.89,21575460
-1.34,-0.85,0.01,0.05,0.89,21579407
-1.32,-0.85,0.01,0.05,0.89,21583371
-1.30,-0.85,0.00,0.04,0.89,21587307
-1.28,-0.84,-0.00,0.03,0.89,21591252
-1.26,-0.83,-0.01,0.03,0.89,21595210
-1.25,-0.82,-0.01,0.02,0.89,21599151
-1.24,-0.82,-0.01,0.00,0.89,21603105
-1.24,-0.81,-0.01,-0.02,0.89,21607051
-1.25,-0.80,-0.01,-0.04,0.89,21610998
-1.26,-0.80,-0.00,-0.05,0.90,21614945
-1.27,-0.79,0.00,-0.06,0.90,21618885
-1.29,-0.79,0.01,-0.06,0.90,21622838
-1.30,-0.79,0.01,-0.07,0.89,21626779
-1.32,-0.80,0.01,-0.08,0.90,21630722
-1.35,-0.80,0.02,-0.09,0.89,21634680
-1.37,-0.80,0.02,-0.09,0.90,21638614
-1.39,-0.81,0.03,-0.08,0.89,21642577
-1.40,-0.82,0.03,-0.07,0.90,21646510
-1.41,-0.83,0.03,-0.06,0.90,21650452
-1.42,-0.83,0.04,-0.05,0.90,21654411
-1.43,-0.84,0.04,-0.04,0.90,21658354
-1.43,-0.85,0.04,-0.02,0.90,21662307
-1.42,-0.86,0.03,-0.00,0.90,21666244
-1.41,-0.86,0.03,0.01,0.89,21670196
-1.40,-0.86,0.02,0.02,0.89,21674148
-1.38,-0.86,0.02,0.03,0.89,21678092
-1.36,-0.86,0.01,0.04,0.89,21682052
-1.33,-0.86,0.01,0.05,0.89,21685998
-1.31,-0.86,0.01,0.04,0.89,21689956
-1.29,-0.85,0.00,0.04,0.89,21693894
-1.28,-0.84,-0.00,0.03,0.89,21697843
-1.26,-0.84,-0.01,0.02,0.89,21701795
-1.25,-0.83,-0.01,0.01,0.89,21705739
-1.25,-0.82,-0.02,-0.00,0.89,21709680
-1.25,-0.81,-0.02,-0.02,0.89,21713628
-1.26,-0.80,-0.01,-0.04,0.89,21717575
-1.27,-0.79,-0.01,-0.05,0.89,21721531
-1.28,-0.79,0.00,-0.06,0.89,21725471
-1.29,-0.79,0.01,-0.06,0.89,21729427
-1.31,-0.79,0.01,-0.08,0.90,21733376
-1.34,-0.79,0.02,-0.09,0.90,21737323
-1.36,-0.80,0.02,-0.09,0.90,21741275
-1.38,-0.80,0.02,-0.08,0.90,21745211
-1.40,-0.81,0.03,-0.07,0.90,21749161
-1.41,-0.81,0.03,-0.06,0.90,21753101
-1.42,-0.82,0.03,-0.06,0.90,21757046
-1.43,-0.83,0.04,-0.05,0.90,21760997
-1.43,-0.84,0.04,-0.03,0.90,21764942
-1.43,-0.85,0.03,-0.01,0.90,21768895
-1.42,-0.85,0.03,0.00,0.90,21772836
-1.41,-0.85,0.02,0.01,0.89,21776790
-1.39,-0.85,0.01,0.02,0.89,21780737
-1.37,-0.85,0.01,0.03,0.89,21784680
-1.35,-0.85,0.01,0.04,0.89,21788641
-1.33,-0.85,0.01,0.05,0.89,21792582
-1.30,-0.85,0.01,0.05,0.89,21796536
-1.29,-0.84,0.01,0.04,0.89,21800480
-1.27,-0.84,0.00,0.03,0.89,21804431
-1.26,-0.83,-0.01,0.02,0.89,21808387
-1.25,-0.82,-0.01,0.01,0.89,21812334
-1.24,-0.81,-0.02,-0.01,0.89,21816291
-1.25,-0.80,-0.02,-0.03,0.89,21820230
-1.25,-0.79,-0.01,-0.04,0.89,21824181
-1.27,-0.79,-0.00,-0.05,0.89,21828135
-1.28,-0.79,0.01,-0.06,0.90,21832079
-1.30,-0.79,0.01,-0.07,0.89,21836030
-1.32,-0.79,0.02,-0.08,0.90,21839974
-1.34,-0.80,0.02,-0.09,0.90,21843918
-1.36,-0.80,0.02,-0.08,0.90,21847868
-1.38,-0.81,0.02,-0.07,0.89,21851814
-1.39,-0.81,0.03,-0.06,0.90,21855764
-1.40,-0.82,0.03,-0.06,0.89,21859709
-1.41,-0.83,0.04,-0.05,0.90,21863654
-1.42,-0.84,0.04,-0.04,0.89,21867604
-1.42,-0.85,0.04,-0.02,0.90,21871549
-1.41,-0.85,0.03,-0.01,0.89,21875503
-1.40,-0.86,0.03,0.01,0.89,21879447
-1.39,-0.86,0.02,0.02,0.89,21883402
-1.37,-0.85,0.01,0.03,0.89,21887351
-1.35,-0.85,0.01,0.04,0.89,21891302
-1.33,-0.85,0.01,0.04,0.89,21895260
-1.31,-0.85,0.01,0.04,0.89,21899206
-1.29,-0.84,0.00,0.04,0.89,21903154
-1.27,-0.84,0.00,0.03,0.89,21907093
-1.25,-0.83,-0.01,0.03,0.89,21911047
-1.24,-0.82,-0.01,0.02,0.89,21914994
-1.23,-0.81,-0.02,0.00,0.89,21918935
-1.23,-0.80,-0.02,-0.01,0.89,21922892
-1.24,-0.79,-0.01,-0.03,0.89,21926834
-1.25,-0.79,-0.01,-0.05,0.89,21930776
-1.26,-0.78,0.00,-0.06,0.89,21934727
-1.28,-0.78,0.01,-0.06,0.90,21938669
-1.29,-0.79,0.01,-0.07,0.89,21942625
-1.32,-0.79,0.01,-0.08,0.90,21946563
-1.34,-0.79,0.02,-0.09,0.89,21950517
-1.36,-0.79,0.02,-0.08,0.89,21954465
-1.37,-0.80,0.02,-0.07,0.89,21958407
-1.39,-0.81,0.03,-0.06,0.89,21962365
-1.40,-0.82,0.03,-0.05,0.89,21966310
-1.41,-0.82,0.04,-0.05,0.90,21970265
-1.41,-0.83,0.04,-0.03,0.89,21974215
-1.41,-0.84,0.04,-0.01,0.89,21978167
-1.40,-0.85,0.03,-0.00,0.89,21982118
-1.39,-0.85,0.02,0.01,0.89,21986061
-1.37,-0.85,0.02,0.02,0.89,21990012
-1.36,-0.85,0.02,0.03,0.89,21993955
-1.34,-0.85,0.01,0.04,0.89,21997914
-1.31,-0.85,0.02,0.04,0.89,22001873
-1.29,-0.85,0.01,0.04,0.89,22005821
-1.27,-0.85,0.01,0.04,0.89,22009771
-1.26,-0.84,0.00,0.03,0.89,22013714
-1.24,-0.83,-0.01,0.02,0.89,22017670
-1.23,-0.82,-0.01,0.01,0.89,22021617
-1.23,-0.81,-0.02,-0.00,0.89,22025568
-1.23,-0.80,-0.02,-0.02,0.89,22029516
-1.24,-0.79,-0.01,-0.04,0.89,22033461
-1.25,-0.79,-0.00,-0.05,0.89,22037418
-1.26,-0.79,0.01,-0.06,0.89,22041369
-1.28,-0.79,0.01,-0.07,0.89,22045317
-1.30,-0.79,0.02,-0.08,0.89,22049269
-1.32,-0.80,0.02,-0.09,0.90,22053206
-1.34,-0.80,0.02,-0.09,0.90,22057154
-1.36,-0.81,0.02,-0.08,0.90,22061091
-1.37,-0.81,0.03,-0.07,0.90,22065034
-1.39,-0.82,0.03,-0.06,0.90,22068983
-1.40,-0.83,0.03,-0.05,0.90,22072922
-1.40,-0.84,0.04,-0.04,0.90,22076871
-1.41,-0.85,0.04,-0.03,0.90,22080813
-1.40,-0.85,0.04,-0.01,0.89,22084765
-1.39,-0.86,0.03,0.00,0.90,22088711
-1.38,-0.86,0.02,0.01,0.89,22092653
-1.37,-0.86,0.02,0.02,0.89,22096607
-1.35,-0.86,0.01,0.03,0.89,22100553
-1.32,-0.86,0.01,0.04,0.89,22104502
-1.30,-0.85,0.01,0.05,0.89,22108450
-1.28,-0.85,0.01,0.04,0.89,22112398
-1.26,-0.85,0.00,0.03,0.89,22116354
-1.25,-0.84,-0.01,0.02,0.89,22120300
-1.24,-0.83,-0.01,0.02,0.89,22124261
-1.23,-0.82,-0.02,0.00,0.89,22128198
-1.23,-0.81,-0.02,-0.01,0.89,22132153
-1.23,-0.80,-0.01,-0.03,0.89,22136106
-1.24,-0.80,-0.01,-0.05,0.89,22140056
-1.25,-0.79,0.00,-0.05,0.89,22144008
-1.27,-0.79,0.01,-0.06,0.90,22147946
-1.28,-0.79,0.01,-0.07,0.89,22151899
-1.31,-0.80,0.02,-0.09,0.90,22155848
-1.33,-0.80,0.02,-0.09,0.90,22159782
-1.35,-0.81,0.02,-0.08,0.90,22163735
-1.37,-0.81,0.02,-0.07,0.89,22167684
-1.38,-0.82,0.03,-0.06,0.90,22171630
-1.39,-0.83,0.03,-0.06,0.89,22175585
-1.40,-0.84,0.04,-0.06,0.90,22179530
-1.41,-0.85,0.04,-0.04,0.90,22183490
-1.41,-0.85,0.04,-0.03,0.90,22187430
-1.40,-0.86,0.04,-0.01,0.89,22191375
-1.39,-0.87,0.03,0.01,0.89,22195327
-1.38,-0.87,0.02,0.02,0.89,22199274
-1.36,-0.86,0.01,0.03,0.89,22203227
-1.34,-0.86,0.01,0.03,0.89,22207176
-1.32,-0.86,0.01,0.04,0.89,22211136
-1.30,-0.86,0.02,0.04,0.89,22215075
-1.28,-0.86,0.01,0.04,0.89,22219029
-1.26,-0.86,0.01,0.03,0.89,22222982
-1.25,-0.85,-0.00,0.02,0.89,22226923
-1.24,-0.84,-0.01,0.01,0.89,22230885
-1.23,-0.83,-0.02,-0.00,0.88,22234824
-1.23,-0.82,-0.02,-0.02,0.89,22238772
-1.24,-0.81,-0.02,-0.04,0.89,22242729
-1.25,-0.80,-0.01,-0.05,0.89,22246679
-1.26,-0.80,0.01,-0.05,0.89,22250631
-1.28,-0.80,0.01,-0.06,0.89,22254572
-1.30,-0.80,0.02,-0.08,0.89,22258511
-1.32,-0.81,0.02,-0.09,0.90,22262459
