Roll Angle, Pitch Angle, AccX, AccY, AccZ, Timer
-0.45,-0.19,0.01,-0.02,0.89,9444895
-0.70,-0.29,0.01,-0.02,0.89,9448833
-0.87,-0.35,0.01,-0.02,0.89,9452789
-0.99,-0.40,0.01,-0.03,0.89,9456728
-1.07,-0.45,0.01,-0.02,0.89,9460679
-1.14,-0.49,0.01,-0.03,0.89,9464636
-1.18,-0.53,0.01,-0.02,0.89,9468580
-1.20,-0.57,0.01,-0.02,0.89,9472528
-1.21,-0.61,0.02,-0.02,0.89,9476463
-1.21,-0.66,0.02,-0.02,0.89,9480418
-1.20,-0.71,0.02,-0.02,0.89,9484360
-1.19,-0.76,0.02,-0.02,0.89,9488302
-1.19,-0.80,0.02,-0.02,0.89,9492255
-1.19,-0.83,0.02,-0.02,0.89,9496201
-1.19,-0.85,0.02,-0.02,0.89,9500156
-1.20,-0.86,0.02,-0.02,0.89,9504101
-1.21,-0.86,0.01,-0.02,0.89,9508048
-1.22,-0.84,0.01,-0.02,0.89,9512001
-1.23,-0.82,0.01,-0.02,0.89,9515946
-1.24,-0.79,0.00,-0.02,0.89,9519901
-1.24,-0.77,0.00,-0.02,0.89,9523839
-1.24,-0.74,0.00,-0.02,0.89,9527786
-1.24,-0.71,0.00,-0.02,0.89,9531726
-1.23,-0.68,-0.00,-0.02,0.89,9535674
-1.23,-0.64,-0.00,-0.02,0.89,9539623
-1.22,-0.61,-0.01,-0.02,0.89,9543563
-1.21,-0.57,-0.01,-0.02,0.89,9547522
-1.20,-0.54,-0.01,-0.02,0.89,9551459
-1.20,-0.51,-0.01,-0.02,0.89,9555402
-1.20,-0.48,-0.01,-0.02,0.89,9559354
-1.20,-0.46,-0.00,-0.02,0.89,9563294
-1.20,-0.45,-0.00,-0.02,0.89,9567242
-1.20,-0.44,0.00,-0.02,0.89,9571181
-1.20,-0.44,0.00,-0.02,0.89,9575132
-1.21,-0.44,0.01,-0.02,0.89,9579084
-1.21,-0.44,0.01,-0.02,0.89,9583031
-1.22,-0.45,0.01,-0.02,0.89,9586986
-1.22,-0.47,0.01,-0.02,0.89,9590930
-1.22,-0.49,0.02,-0.02,0.89,9594889
-1.23,-0.51,0.02,-0.02,0.89,9598830
-1.23,-0.54,0.02,-0.02,0.89,9602776
-1.23,-0.57,0.03,-0.02,0.89,9606731
-1.24,-0.60,0.03,-0.02,0.89,9610674
-1.24,-0.63,0.03,-0.02,0.89,9614631
-1.24,-0.66,0.03,-0.02,0.90,9618573
-1.25,-0.69,0.03,-0.02,0.89,9622533
-1.25,-0.73,0.04,-0.02,0.90,9626475
-1.26,-0.76,0.04,-0.02,0.89,9630426
-1.27,-0.79,0.04,-0.03,0.90,9634384
-1.27,-0.81,0.03,-0.03,0.90,9638332
-1.28,-0.84,0.03,-0.03,0.89,9642288
-1.29,-0.86,0.03,-0.02,0.89,9646225
-1.29,-0.87,0.03,-0.02,0.89,9650185
-1.29,-0.89,0.03,-0.02,0.89,9654126
-1.30,-0.90,0.02,-0.02,0.89,9658074
-1.30,-0.91,0.02,-0.02,0.89,9662029
-1.30,-0.91,0.02,-0.02,0.89,9665971
-1.30,-0.92,0.02,-0.02,0.89,9669922
-1.29,-0.92,0.02,-0.02,0.89,9673867
-1.29,-0.91,0.01,-0.02,0.89,9677812
-1.29,-0.91,0.01,-0.02,0.89,9681763
-1.29,-0.90,0.01,-0.02,0.89,9685698
-1.29,-0.89,0.01,-0.02,0.89,9689655
-1.29,-0.88,0.00,-0.02,0.89,9693601
-1.29,-0.87,0.00,-0.02,0.89,9697556
-1.30,-0.85,0.00,-0.02,0.89,9701489
-1.30,-0.84,0.00,-0.02,0.89,9705432
-1.30,-0.83,-0.00,-0.02,0.89,9709384
-1.30,-0.81,-0.00,-0.02,0.89,9713326
-1.30,-0.80,0.00,-0.02,0.89,9717271
-1.30,-0.79,0.00,-0.02,0.89,9720983
-1.30,-0.78,0.00,-0.02,0.89,9724928
-1.30,-0.77,0.00,-0.02,0.89,9728866
-1.29,-0.76,0.00,-0.02,0.89,9732816
-1.29,-0.76,0.00,-0.02,0.89,9736768
-1.29,-0.75,0.01,-0.02,0.89,9740705
-1.29,-0.75,0.01,-0.02,0.89,9744660
-1.29,-0.75,0.01,-0.02,0.89,9748605
-1.29,-0.75,0.01,-0.02,0.89,9752553
-1.29,-0.75,0.01,-0.02,0.89,9756509
-1.29,-0.76,0.02,-0.02,0.89,9760455
-1.29,-0.76,0.02,-0.02,0.89,9764412
-1.29,-0.77,0.02,-0.02,0.89,9768362
-1.29,-0.77,0.02,-0.02,0.89,9772322
-1.29,-0.77,0.02,-0.02,0.89,9776272
-1.30,-0.78,0.02,-0.02,0.89,9780220
-1.30,-0.78,0.02,-0.02,0.89,9784172
-1.30,-0.79,0.02,-0.02,0.89,9788121
-1.30,-0.79,0.02,-0.02,0.89,9792076
-1.30,-0.80,0.02,-0.02,0.89,9796016
-1.30,-0.80,0.02,-0.02,0.89,9799963
-1.30,-0.81,0.02,-0.02,0.89,9803892
-1.31,-0.82,0.02,-0.02,0.89,9807841
-1.31,-0.83,0.02,-0.02,0.89,9811802
-1.31,-0.83,0.02,-0.02,0.89,9815752
-1.31,-0.84,0.03,-0.02,0.89,9819701
-1.31,-0.85,0.02,-0.02,0.89,9823641
-1.31,-0.85,0.02,-0.02,0.89,9827593
-1.31,-0.86,0.02,-0.02,0.89,9831541
-1.31,-0.86,0.02,-0.02,0.89,9835489
-1.32,-0.87,0.02,-0.02,0.89,9839452
-1.32,-0.86,0.01,-0.02,0.89,9843395
-1.32,-0.86,0.01,-0.02,0.89,9847353
-1.32,-0.86,0.01,-0.02,0.89,9851297
-1.32,-0.86,0.01,-0.02,0.89,9855252
-1.33,-0.85,0.01,-0.02,0.89,9859213
-1.33,-0.85,0.01,-0.02,0.89,9863160
-1.33,-0.85,0.01,-0.02,0.89,9867111
-1.33,-0.84,0.01,-0.02,0.89,9871048
-1.33,-0.84,0.01,-0.02,0.89,9875010
-1.33,-0.83,0.01,-0.02,0.89,9878956
-1.33,-0.83,0.01,-0.02,0.89,9882910
-1.32,-0.82,0.01,-0.02,0.89,9886862
-1.32,-0.82,0.01,-0.02,0.89,9890802
-1.33,-0.82,0.01,-0.02,0.89,9894756
-1.33,-0.81,0.01,-0.02,0.89,9898702
-1.33,-0.81,0.00,-0.02,0.89,9902651
-1.33,-0.80,0.00,-0.02,0.89,9906594
-1.33,-0.79,0.00,-0.02,0.89,9910534
-1.32,-0.79,0.00,-0.02,0.89,9914488
-1.32,-0.78,0.00,-0.02,0.89,9918426
-1.32,-0.78,0.00,-0.02,0.89,9922369
-1.32,-0.77,0.00,-0.02,0.89,9926310
-1.32,-0.77,0.00,-0.02,0.89,9930252
-1.32,-0.77,0.01,-0.02,0.89,9934207
-1.32,-0.76,0.01,-0.02,0.89,9938150
-1.32,-0.76,0.01,-0.02,0.89,9942106
-1.32,-0.76,0.01,-0.02,0.89,9946056
-1.32,-0.77,0.01,-0.02,0.89,9950014
-1.32,-0.77,0.02,-0.02,0.89,9953964
-1.32,-0.77,0.02,-0.02,0.89,9957911
-1.32,-0.78,0.02,-0.02,0.89,9961867
-1.32,-0.78,0.02,-0.02,0.89,9965812
-1.32,-0.79,0.02,-0.02,0.89,9969768
-1.32,-0.79,0.02,-0.02,0.89,9973707
-1.33,-0.80,0.02,-0.02,0.89,9977655
-1.33,-0.80,0.02,-0.02,0.89,9981598
-1.33,-0.81,0.02,-0.02,0.89,9985547
-1.33,-0.82,0.02,-0.02,0.89,9989498
-1.33,-0.82,0.02,-0.02,0.89,9993437
-1.33,-0.83,0.02,-0.02,0.89,9997397
-1.33,-0.83,0.02,-0.02,0.89,10001346
-1.33,-0.84,0.02,-0.02,0.89,10005301
-1.33,-0.85,0.02,-0.02,0.89,10009256
-1.33,-0.85,0.02,-0.02,0.89,10013204
-1.33,-0.85,0.02,-0.02,0.89,10017166
-1.33,-0.85,0.02,-0.02,0.89,10021115
-1.33,-0.86,0.02,-0.02,0.89,10025055
-1.33,-0.86,0.02,-0.02,0.89,10029004
-1.34,-0.86,0.01,-0.02,0.89,10032953
-1.34,-0.86,0.01,-0.02,0.89,10036903
-1.34,-0.85,0.01,-0.02,0.89,10040853
-1.34,-0.85,0.01,-0.02,0.89,10044805
-1.34,-0.85,0.01,-0.02,0.89,10048761
-1.34,-0.85,0.01,-0.02,0.89,10052705
-1.34,-0.85,0.01,-0.02,0.89,10056660
-1.34,-0.84,0.01,-0.02,0.89,10060605
-1.34,-0.84,0.01,-0.02,0.89,10064568
-1.34,-0.84,0.01,-0.02,0.89,10068512
-1.34,-0.84,0.01,-0.02,0.89,10072466
-1.33,-0.84,0.01,-0.02,0.89,10076422
-1.33,-0.83,0.01,-0.02,0.89,10080367
-1.33,-0.83,0.01,-0.02,0.89,10084324
-1.33,-0.83,0.01,-0.02,0.89,10088268
-1.33,-0.83,0.01,-0.02,0.89,10092221
-1.33,-0.83,0.01,-0.02,0.89,10096186
-1.33,-0.83,0.01,-0.02,0.89,10100133
-1.33,-0.82,0.01,-0.02,0.89,10104092
-1.33,-0.82,0.01,-0.02,0.89,10108033
-1.33,-0.82,0.01,-0.02,0.89,10111984
-1.33,-0.81,0.00,-0.02,0.89,10115936
-1.33,-0.81,0.01,-0.02,0.89,10119885
-1.33,-0.81,0.01,-0.02,0.89,10123845
-1.33,-0.81,0.01,-0.02,0.89,10127787
-1.33,-0.81,0.01,-0.02,0.89,10131737
-1.33,-0.80,0.01,-0.02,0.89,10135687
-1.33,-0.80,0.01,-0.02,0.89,10139635
-1.33,-0.80,0.01,-0.02,0.89,10143584
-1.33,-0.80,0.01,-0.02,0.89,10147529
-1.33,-0.80,0.01,-0.02,0.89,10151473
-1.33,-0.81,0.01,-0.02,0.89,10155427
-1.33,-0.81,0.01,-0.02,0.89,10159368
-1.33,-0.81,0.02,-0.02,0.89,10163316
-1.33,-0.81,0.02,-0.02,0.89,10167270
-1.33,-0.81,0.01,-0.02,0.89,10171223
-1.33,-0.81,0.01,-0.02,0.89,10175182
-1.33,-0.81,0.01,-0.02,0.89,10179129
-1.33,-0.81,0.01,-0.02,0.89,10183089
-1.33,-0.81,0.01,-0.02,0.89,10187039
-1.33,-0.81,0.01,-0.02,0.89,10190998
-1.33,-0.81,0.02,-0.02,0.89,10194948
-1.33,-0.82,0.02,-0.02,0.89,10198895
-1.33,-0.82,0.02,-0.02,0.89,10202852
-1.33,-0.82,0.02,-0.02,0.89,10206794
-1.33,-0.82,0.02,-0.02,0.89,10210755
-1.33,-0.82,0.02,-0.02,0.89,10214697
-1.33,-0.83,0.02,-0.02,0.89,10218647
-1.33,-0.83,0.02,-0.02,0.89,10222606
-1.33,-0.83,0.02,-0.02,0.89,10226548
-1.33,-0.83,0.02,-0.02,0.89,10230503
-1.33,-0.83,0.02,-0.02,0.89,10234430
-1.33,-0.83,0.01,-0.02,0.89,10238384
-1.33,-0.83,0.01,-0.02,0.89,10242342
-1.33,-0.83,0.01,-0.02,0.89,10246294
-1.33,-0.83,0.01,-0.02,0.89,10250258
-1.33,-0.83,0.01,-0.02,0.89,10254203
-1.33,-0.83,0.01,-0.02,0.89,10258152
-1.33,-0.83,0.02,-0.02,0.89,10262110
-1.33,-0.83,0.02,-0.02,0.89,10266056
-1.33,-0.83,0.01,-0.02,0.89,10270016
-1.33,-0.83,0.01,-0.02,0.89,10273947
-1.33,-0.83,0.01,-0.02,0.89,10277895
-1.33,-0.83,0.01,-0.02,0.89,10281858
-1.33,-0.83,0.01,-0.02,0.89,10285807
-1.33,-0.82,0.01,-0.02,0.89,10289760
-1.33,-0.82,0.01,-0.02,0.89,10293708
-1.33,-0.82,0.00,-0.02,0.89,10297656
-1.33,-0.81,0.01,-0.02,0.89,10301607
-1.33,-0.81,0.00,-0.02,0.89,10305548
-1.33,-0.81,0.00,-0.02,0.89,10309505
-1.33,-0.80,0.00,-0.02,0.89,10313438
-1.33,-0.80,0.01,-0.02,0.89,10317390
-1.33,-0.80,0.01,-0.02,0.89,10321332
-1.33,-0.80,0.01,-0.02,0.89,10325274
-1.33,-0.80,0.01,-0.02,0.89,10329229
-1.33,-0.80,0.01,-0.02,0.89,10333171
-1.32,-0.80,0.01,-0.02,0.89,10337117
-1.32,-0.80,0.01,-0.02,0.89,10341061
-1.32,-0.80,0.01,-0.02,0.89,10345008
-1.32,-0.80,0.01,-0.02,0.89,10348961
-1.32,-0.80,0.01,-0.02,0.89,10352899
-1.32,-0.81,0.02,-0.02,0.89,10356861
-1.32,-0.81,0.02,-0.02,0.89,10360811
-1.32,-0.81,0.02,-0.02,0.89,10364763
-1.33,-0.82,0.02,-0.02,0.89,10368722
-1.33,-0.82,0.02,-0.02,0.89,10372672
-1.33,-0.82,0.02,-0.02,0.89,10376623
-1.33,-0.83,0.02,-0.02,0.89,10380566
-1.33,-0.83,0.02,-0.02,0.89,10384515
-1.33,-0.84,0.02,-0.02,0.90,10388472
-1.33,-0.84,0.02,-0.02,0.90,10392415
-1.33,-0.84,0.02,-0.02,0.89,10396366
-1.33,-0.85,0.02,-0.02,0.89,10400314
-1.33,-0.85,0.02,-0.02,0.90,10404261
-1.33,-0.85,0.02,-0.02,0.89,10408210
-1.33,-0.86,0.02,-0.02,0.89,10412152
-1.33,-0.86,0.02,-0.02,0.89,10416109
-1.33,-0.86,0.02,-0.02,0.89,10420054
-1.33,-0.86,0.02,-0.02,0.90,10424006
-1.33,-0.86,0.02,-0.02,0.89,10427956
-1.33,-0.86,0.02,-0.02,0.89,10431899
-1.33,-0.86,0.02,-0.02,0.89,10435853
-1.33,-0.86,0.01,-0.02,0.89,10439798
-1.33,-0.86,0.01,-0.02,0.89,10443752
-1.33,-0.86,0.01,-0.02,0.89,10447700
-1.33,-0.86,0.01,-0.02,0.89,10451644
-1.33,-0.85,0.01,-0.02,0.89,10455600
-1.33,-0.85,0.00,-0.02,0.89,10459538
-1.33,-0.84,0.00,-0.02,0.89,10463493
-1.34,-0.84,0.00,-0.02,0.89,10467436
-1.34,-0.83,0.00,-0.02,0.89,10471385
-1.34,-0.83,0.00,-0.02,0.89,10475336
-1.34,-0.83,0.00,-0.02,0.89,10479282
-1.34,-0.82,0.00,-0.02,0.89,10483236
-1.34,-0.82,0.00,-0.02,0.89,10487178
-1.34,-0.81,0.00,-0.02,0.89,10491126
-1.34,-0.81,0.00,-0.02,0.89,10495079
-1.34,-0.81,0.01,-0.02,0.89,10499023
-1.34,-0.81,0.01,-0.02,0.89,10502975
-1.34,-0.81,0.01,-0.02,0.89,10506927
-1.34,-0.80,0.01,-0.02,0.89,10510880
-1.34,-0.80,0.01,-0.02,0.89,10514832
-1.34,-0.80,0.01,-0.02,0.89,10518777
-1.34,-0.80,0.01,-0.02,0.89,10522724
-1.34,-0.80,0.01,-0.02,0.89,10526667
-1.34,-0.80,0.01,-0.02,0.89,10530611
-1.34,-0.80,0.01,-0.02,0.89,10534565
-1.34,-0.80,0.01,-0.02,0.89,10538513
-1.34,-0.80,0.01,-0.02,0.89,10542469
-1.34,-0.80,0.01,-0.02,0.89,10546415
-1.34,-0.80,0.01,-0.02,0.89,10550358
-1.34,-0.80,0.02,-0.02,0.89,10554303
-1.34,-0.81,0.02,-0.02,0.89,10558242
-1.34,-0.81,0.02,-0.02,0.90,10562206
-1.34,-0.82,0.02,-0.02,0.90,10566150
-1.34,-0.82,0.02,-0.02,0.89,10570097
-1.34,-0.83,0.03,-0.02,0.89,10574037
-1.34,-0.83,0.03,-0.02,0.89,10577983
-1.34,-0.84,0.03,-0.02,0.89,10581942
-1.34,-0.84,0.03,-0.02,0.89,10585894
-1.33,-0.85,0.03,-0.02,0.89,10589852
-1.33,-0.85,0.03,-0.02,0.89,10593793
-1.33,-0.85,0.02,-0.02,0.89,10597742
-1.33,-0.86,0.02,-0.02,0.89,10601700
-1.33,-0.86,0.02,-0.02,0.89,10605643
-1.33,-0.86,0.02,-0.02,0.89,10609599
-1.33,-0.85,0.01,-0.02,0.89,10613548
-1.33,-0.85,0.01,-0.02,0.89,10617504
-1.33,-0.85,0.01,-0.02,0.89,10621458
-1.33,-0.84,0.00,-0.02,0.89,10625401
-1.33,-0.84,0.00,-0.02,0.89,10629346
-1.33,-0.83,-0.00,-0.02,0.89,10633290
-1.33,-0.83,-0.00,-0.02,0.89,10637247
-1.33,-0.82,-0.00,-0.02,0.89,10641196
-1.33,-0.82,-0.00,-0.02,0.89,10645136
-1.34,-0.81,-0.00,-0.02,0.89,10649093
-1.34,-0.81,0.00,-0.02,0.89,10653036
-1.34,-0.80,0.00,-0.02,0.89,10656985
-1.34,-0.80,0.01,-0.02,0.89,10660936
-1.34,-0.80,0.01,-0.02,0.89,10664879
-1.33,-0.80,0.01,-0.02,0.89,10668838
-1.33,-0.80,0.01,-0.02,0.89,10672776
-1.33,-0.80,0.01,-0.02,0.89,10676724
-1.33,-0.80,0.01,-0.02,0.89,10680679
-1.33,-0.80,0.01,-0.02,0.89,10684618
-1.33,-0.80,0.02,-0.02,0.89,10688574
-1.33,-0.81,0.02,-0.02,0.89,10692520
-1.32,-0.81,0.02,-0.02,0.89,10696474
-1.32,-0.81,0.02,-0.02,0.89,10700434
-1.32,-0.81,0.02,-0.02,0.89,10704374
-1.32,-0.82,0.02,-0.02,0.89,10708329
-1.32,-0.82,0.02,-0.02,0.89,10712277
-1.32,-0.82,0.02,-0.02,0.89,10716232
-1.32,-0.82,0.02,-0.02,0.89,10720185
-1.32,-0.83,0.02,-0.02,0.89,10724134
-1.32,-0.83,0.02,-0.02,0.90,10728086
-1.32,-0.83,0.02,-0.02,0.89,10732024
-1.33,-0.83,0.02,-0.02,0.89,10735978
-1.33,-0.83,0.01,-0.02,0.89,10739923
-1.33,-0.83,0.01,-0.02,0.89,10743873
-1.33,-0.83,0.01,-0.02,0.89,10747831
-1.33,-0.83,0.01,-0.02,0.89,10751778
-1.33,-0.83,0.01,-0.02,0.89,10755738
-1.33,-0.83,0.01,-0.02,0.89,10759683
-1.33,-0.83,0.01,-0.02,0.89,10763629
-1.33,-0.83,0.01,-0.02,0.89,10767582
-1.33,-0.83,0.01,-0.02,0.89,10771524
-1.33,-0.83,0.01,-0.02,0.89,10775483
-1.33,-0.82,0.01,-0.02,0.89,10779435
-1.33,-0.82,0.01,-0.02,0.89,10783386
-1.33,-0.82,0.01,-0.02,0.89,10787345
-1.33,-0.82,0.01,-0.02,0.89,10791296
-1.33,-0.82,0.01,-0.02,0.89,10795255
-1.33,-0.82,0.01,-0.02,0.89,10799201
-1.33,-0.82,0.01,-0.02,0.89,10803154
-1.33,-0.82,0.01,-0.02,0.89,10807115
-1.33,-0.81,0.01,-0.02,0.89,10811059
-1.33,-0.81,0.01,-0.02,0.89,10815015
-1.33,-0.81,0.01,-0.02,0.89,10818963
-1.33,-0.81,0.01,-0.02,0.89,10822918
-1.33,-0.81,0.01,-0.02,0.89,10826873
-1.32,-0.81,0.01,-0.02,0.89,10830814
-1.32,-0.81,0.01,-0.02,0.89,10834766
-1.32,-0.81,0.01,-0.02,0.89,10838709
-1.32,-0.81,0.01,-0.02,0.89,10842660
-1.32,-0.81,0.01,-0.02,0.89,10846610
-1.32,-0.81,0.02,-0.02,0.89,10850555
-1.32,-0.82,0.02,-0.02,0.89,10854508
-1.32,-0.82,0.02,-0.02,0.89,10858448
-1.32,-0.82,0.02,-0.02,0.89,10862407
-1.32,-0.83,0.02,-0.02,0.89,10866354
-1.32,-0.83,0.02,-0.02,0.89,10870303
-1.32,-0.83,0.02,-0.02,0.89,10874260
-1.32,-0.83,0.02,-0.02,0.89,10878200
-1.32,-0.84,0.02,-0.02,0.89,10882159
-1.32,-0.84,0.02,-0.02,0.89,10886104
-1.32,-0.84,0.02,-0.02,0.89,10890057
-1.32,-0.85,0.02,-0.02,0.89,10894014
-1.32,-0.85,0.02,-0.02,0.89,10897957
-1.32,-0.85,0.02,-0.02,0.89,10901912
-1.33,-0.86,0.02,-0.02,0.89,10905852
-1.33,-0.86,0.02,-0.02,0.90,10909795
-1.33,-0.86,0.02,-0.02,0.90,10913748
-1.33,-0.87,0.02,-0.02,0.90,10917690
-1.33,-0.87,0.02,-0.02,0.89,10921648
-1.33,-0.87,0.02,-0.02,0.89,10925595
-1.33,-0.87,0.02,-0.02,0.89,10929545
-1.33,-0.87,0.02,-0.02,0.89,10933499
-1.33,-0.87,0.01,-0.02,0.89,10937451
-1.34,-0.87,0.01,-0.02,0.89,10941412
-1.34,-0.87,0.01,-0.02,0.89,10945356
-1.34,-0.86,0.01,-0.02,0.89,10949310
-1.34,-0.86,0.01,-0.02,0.89,10953272
-1.34,-0.86,0.00,-0.02,0.89,10957216
-1.34,-0.85,0.00,-0.02,0.89,10961174
-1.33,-0.85,0.00,-0.02,0.89,10965113
-1.33,-0.84,0.00,-0.02,0.89,10969062
-1.33,-0.84,-0.00,-0.02,0.89,10973014
-1.33,-0.83,-0.00,-0.02,0.89,10976954
-1.33,-0.83,-0.00,-0.02,0.89,10980906
-1.33,-0.82,-0.00,-0.02,0.89,10984849
-1.33,-0.82,-0.01,-0.02,0.89,10988804
-1.33,-0.81,-0.01,-0.02,0.89,10992762
-1.32,-0.80,-0.01,-0.02,0.89,10996704
-1.32,-0.80,-0.00,-0.02,0.89,11000649
-1.32,-0.80,-0.00,-0.02,0.89,11004589
-1.32,-0.79,-0.00,-0.02,0.89,11008540
-1.32,-0.79,0.00,-0.02,0.89,11012268
-1.32,-0.79,0.00,-0.02,0.89,11016209
-1.32,-0.79,0.01,-0.02,0.89,11020160
-1.32,-0.79,0.01,-0.02,0.89,11024111
-1.32,-0.79,0.01,-0.02,0.89,11028061
-1.32,-0.79,0.01,-0.02,0.89,11032021
-1.32,-0.79,0.01,-0.02,0.89,11035962
-1.31,-0.80,0.02,-0.02,0.89,11039916
-1.31,-0.80,0.02,-0.02,0.89,11043861
-1.31,-0.80,0.02,-0.02,0.89,11047811
-1.31,-0.81,0.02,-0.02,0.89,11051766
-1.31,-0.82,0.02,-0.02,0.89,11055713
-1.31,-0.82,0.03,-0.02,0.89,11059667
-1.31,-0.83,0.03,-0.02,0.89,11063614
-1.31,-0.83,0.03,-0.02,0.89,11067565
-1.31,-0.84,0.03,-0.03,0.90,11071506
-1.32,-0.85,0.03,-0.03,0.90,11075445
-1.32,-0.85,0.03,-0.03,0.90,11079405
-1.32,-0.86,0.03,-0.03,0.90,11083348
-1.32,-0.87,0.03,-0.02,0.90,11087299
-1.32,-0.88,0.04,-0.02,0.89,11091244
-1.32,-0.88,0.04,-0.02,0.89,11095194
-1.32,-0.89,0.04,-0.02,0.89,11099154
-1.32,-0.90,0.03,-0.02,0.89,11103099
-1.32,-0.90,0.03,-0.02,0.89,11107052
-1.32,-0.91,0.03,-0.02,0.89,11110996
-1.32,-0.91,0.03,-0.02,0.89,11114946
-1.32,-0.91,0.03,-0.02,0.89,11118902
-1.32,-0.92,0.03,-0.02,0.89,11122852
-1.32,-0.92,0.02,-0.02,0.89,11126806
-1.33,-0.92,0.02,-0.02,0.89,11130757
-1.33,-0.91,0.02,-0.02,0.89,11134713
-1.33,-0.91,0.01,-0.02,0.89,11138669
-1.33,-0.91,0.01,-0.02,0.89,11142614
-1.33,-0.90,0.01,-0.02,0.89,11146572
-1.33,-0.90,0.01,-0.02,0.89,11150515
-1.33,-0.89,0.00,-0.02,0.89,11154457
-1.33,-0.89,0.00,-0.02,0.89,11158411
-1.33,-0.88,0.00,-0.02,0.89,11162353
-1.34,-0.88,0.00,-0.02,0.89,11166305
-1.34,-0.87,0.00,-0.02,0.89,11170253
-1.34,-0.87,0.00,-0.02,0.89,11174204
-1.34,-0.86,0.00,-0.02,0.89,11178161
-1.34,-0.86,0.00,-0.02,0.89,11182102
-1.34,-0.85,0.00,-0.02,0.89,11186054
-1.34,-0.85,0.00,-0.02,0.89,11190001
-1.34,-0.84,0.00,-0.02,0.89,11193948
-1.33,-0.84,0.00,-0.02,0.89,11197895
-1.33,-0.84,0.00,-0.02,0.89,11201837
-1.33,-0.83,0.00,-0.02,0.89,11205787
-1.33,-0.83,0.00,-0.02,0.89,11209727
-1.34,-0.83,0.01,-0.02,0.89,11213682
-1.34,-0.83,0.01,-0.02,0.89,11217626
-1.34,-0.82,0.01,-0.02,0.89,11221574
-1.33,-0.82,0.01,-0.02,0.89,11225530
-1.33,-0.82,0.01,-0.02,0.89,11229467
-1.33,-0.82,0.01,-0.02,0.89,11233414
-1.33,-0.82,0.01,-0.02,0.89,11237365
-1.33,-0.83,0.02,-0.02,0.89,11241313
-1.33,-0.83,0.02,-0.02,0.90,11245264
-1.33,-0.83,0.02,-0.02,0.89,11249211
-1.33,-0.83,0.02,-0.02,0.89,11253167
-1.33,-0.83,0.02,-0.02,0.89,11257121
-1.33,-0.83,0.02,-0.02,0.89,11261076
-1.33,-0.84,0.02,-0.02,0.89,11265037
-1.33,-0.84,0.02,-0.02,0.89,11268981
-1.34,-0.84,0.02,-0.03,0.89,11272940
-1.34,-0.84,0.01,-0.03,0.89,11276887
-1.34,-0.84,0.01,-0.03,0.89,11280840
-1.34,-0.84,0.01,-0.03,0.89,11284798
-1.35,-0.84,0.01,-0.03,0.89,11288744
-1.35,-0.84,0.01,-0.03,0.89,11292700
-1.35,-0.84,0.02,-0.03,0.89,11296644
-1.35,-0.84,0.01,-0.02,0.89,11300596
-1.35,-0.84,0.01,-0.02,0.89,11304558
-1.35,-0.84,0.01,-0.02,0.89,11308505
-1.35,-0.83,0.01,-0.02,0.89,11312453
-1.35,-0.83,0.01,-0.02,0.89,11316391
-1.35,-0.83,0.01,-0.02,0.89,11320339
-1.35,-0.83,0.01,-0.02,0.89,11324292
-1.35,-0.83,0.01,-0.02,0.89,11328238
-1.35,-0.82,0.00,-0.02,0.89,11332195
-1.35,-0.82,0.00,-0.02,0.89,11336134
-1.36,-0.81,-0.00,-0.02,0.89,11340091
-1.35,-0.81,-0.00,-0.02,0.89,11344041
-1.35,-0.81,0.00,-0.01,0.89,11347983
-1.35,-0.81,0.01,-0.01,0.89,11351939
-1.34,-0.81,0.02,-0.01,0.89,11355883
-1.34,-0.81,0.02,-0.01,0.89,11359842
-1.34,-0.81,0.01,-0.01,0.89,11363792
-1.34,-0.81,0.01,-0.02,0.89,11367736
-1.34,-0.81,0.01,-0.02,0.89,11371691
-1.34,-0.80,0.00,-0.02,0.89,11375631
-1.34,-0.80,0.01,-0.03,0.89,11379587
-1.34,-0.80,0.01,-0.03,0.89,11383530
-1.35,-0.80,0.01,-0.03,0.89,11387483
-1.35,-0.80,0.01,-0.03,0.89,11391437
-1.35,-0.80,0.01,-0.03,0.89,11395375
-1.35,-0.80,0.01,-0.02,0.89,11399326
-1.35,-0.80,0.01,-0.02,0.89,11403271
-1.35,-0.80,0.01,-0.02,0.89,11407221
-1.34,-0.80,0.01,-0.02,0.89,11411175
-1.34,-0.80,0.01,-0.02,0.89,11415117
-1.34,-0.80,0.02,-0.02,0.89,11419072
-1.34,-0.80,0.02,-0.02,0.89,11423014
-1.34,-0.81,0.02,-0.03,0.89,11426965
-1.35,-0.81,0.02,-0.03,0.89,11430925
-1.35,-0.81,0.01,-0.03,0.89,11434871
-1.35,-0.81,0.01,-0.03,0.89,11438823
-1.36,-0.81,0.01,-0.03,0.89,11442774
-1.36,-0.81,0.02,-0.03,0.89,11446732
-1.36,-0.81,0.02,-0.03,0.89,11450686
-1.36,-0.81,0.02,-0.02,0.89,11454625
-1.36,-0.82,0.03,-0.02,0.89,11458587
-1.36,-0.82,0.03,-0.01,0.89,11462530
-1.36,-0.83,0.02,-0.01,0.89,11466480
-1.35,-0.83,0.02,-0.01,0.89,11470431
-1.35,-0.83,0.01,-0.01,0.89,11474370
-1.35,-0.83,0.01,-0.01,0.89,11478332
-1.35,-0.82,0.01,-0.01,0.89,11482279
-1.35,-0.82,0.01,-0.02,0.89,11486240
-1.35,-0.82,0.01,-0.02,0.89,11490183
-1.35,-0.82,0.01,-0.02,0.89,11494131
-1.35,-0.82,0.01,-0.02,0.89,11498082
-1.35,-0.82,0.01,-0.02,0.89,11502030
-1.35,-0.81,0.01,-0.02,0.89,11505983
-1.35,-0.81,0.00,-0.02,0.90,11509922
-1.35,-0.80,0.00,-0.02,0.90,11513863
-1.35,-0.80,0.00,-0.02,0.90,11517808
-1.35,-0.80,0.00,-0.02,0.89,11521746
-1.35,-0.79,0.00,-0.02,0.90,11525696
-1.35,-0.79,0.00,-0.02,0.89,11529639
-1.35,-0.79,0.00,-0.02,0.89,11533365
-1.35,-0.78,-0.00,-0.03,0.89,11537325
-1.35,-0.78,-0.00,-0.03,0.89,11541273
-1.35,-0.77,0.00,-0.03,0.89,11545228
-1.35,-0.77,0.00,-0.03,0.89,11549174
-1.35,-0.77,0.01,-0.02,0.89,11553126
-1.35,-0.77,0.01,-0.02,0.89,11557083
-1.35,-0.77,0.01,-0.02,0.89,11561019
-1.35,-0.77,0.01,-0.02,0.89,11564974
-1.35,-0.78,0.01,-0.02,0.89,11568919
-1.35,-0.78,0.01,-0.02,0.89,11572871
-1.35,-0.78,0.01,-0.02,0.89,11576828
-1.35,-0.78,0.01,-0.02,0.89,11580775
-1.34,-0.78,0.01,-0.02,0.89,11584733
-1.34,-0.78,0.01,-0.02,0.89,11588679
-1.34,-0.78,0.01,-0.02,0.89,11592628
-1.34,-0.78,0.01,-0.02,0.89,11596587
-1.34,-0.78,0.01,-0.02,0.89,11600531
-1.34,-0.78,0.01,-0.02,0.89,11604487
-1.34,-0.78,0.01,-0.02,0.89,11608426
-1.34,-0.78,0.02,-0.02,0.89,11612377
-1.34,-0.79,0.02,-0.02,0.89,11616329
-1.34,-0.79,0.02,-0.02,0.89,11620272
-1.34,-0.79,0.02,-0.02,0.89,11624229
-1.34,-0.80,0.02,-0.02,0.89,11628167
-1.34,-0.80,0.02,-0.02,0.89,11632120
-1.34,-0.80,0.02,-0.02,0.89,11636064
-1.34,-0.81,0.02,-0.02,0.89,11640011
-1.34,-0.81,0.02,-0.02,0.89,11643971
-1.34,-0.81,0.02,-0.02,0.89,11647917
-1.33,-0.81,0.02,-0.02,0.89,11651868
-1.33,-0.82,0.02,-0.02,0.89,11655813
-1.33,-0.82,0.02,-0.02,0.89,11659764
-1.33,-0.82,0.02,-0.02,0.89,11663721
-1.34,-0.82,0.02,-0.02,0.89,11667667
-1.34,-0.82,0.02,-0.02,0.89,11671624
-1.34,-0.82,0.02,-0.02,0.89,11675573
-1.34,-0.83,0.02,-0.02,0.89,11679526
-1.34,-0.83,0.02,-0.02,0.89,11683484
-1.34,-0.83,0.02,-0.02,0.89,11687431
-1.34,-0.83,0.02,-0.02,0.89,11691391
-1.34,-0.83,0.02,-0.02,0.89,11695339
-1.34,-0.84,0.02,-0.01,0.89,11699295
-1.33,-0.84,0.02,-0.01,0.89,11703252
-1.33,-0.84,0.02,-0.01,0.89,11707200
-1.33,-0.84,0.02,-0.01,0.89,11711160
-1.33,-0.84,0.01,-0.01,0.89,11715108
-1.32,-0.83,0.01,-0.02,0.89,11719063
-1.33,-0.83,0.00,-0.02,0.89,11723020
-1.33,-0.83,-0.00,-0.03,0.89,11726967
-1.33,-0.82,-0.01,-0.03,0.89,11730924
-1.33,-0.81,-0.01,-0.03,0.89,11734868
-1.34,-0.81,-0.01,-0.03,0.89,11738817
-1.34,-0.80,-0.00,-0.03,0.89,11742766
-1.34,-0.80,-0.00,-0.03,0.89,11746702
-1.34,-0.79,0.01,-0.02,0.89,11750662
-1.34,-0.79,0.01,-0.02,0.89,11754609
-1.34,-0.80,0.02,-0.02,0.89,11758562
-1.34,-0.80,0.02,-0.02,0.89,11762519
-1.33,-0.80,0.02,-0.01,0.89,11766458
-1.33,-0.80,0.02,-0.01,0.89,11770417
-1.33,-0.81,0.02,-0.02,0.89,11774363
-1.33,-0.81,0.02,-0.02,0.89,11778313
-1.33,-0.81,0.02,-0.02,0.89,11782267
-1.33,-0.81,0.02,-0.02,0.89,11786216
-1.33,-0.82,0.02,-0.03,0.89,11790175
-1.33,-0.82,0.02,-0.03,0.89,11794124
-1.34,-0.82,0.01,-0.03,0.89,11798075
-1.34,-0.82,0.01,-0.03,0.89,11802026
-1.34,-0.82,0.01,-0.03,0.89,11805970
-1.34,-0.82,0.01,-0.02,0.89,11809930
-1.34,-0.82,0.01,-0.02,0.89,11813875
-1.34,-0.82,0.01,-0.02,0.89,11817836
-1.34,-0.82,0.01,-0.02,0.89,11821777
-1.34,-0.82,0.01,-0.02,0.89,11825731
-1.34,-0.81,0.01,-0.02,0.89,11829692
-1.34,-0.81,0.01,-0.02,0.89,11833638
-1.33,-0.81,0.01,-0.02,0.89,11837595
-1.33,-0.81,0.00,-0.02,0.89,11841537
-1.33,-0.81,0.00,-0.02,0.89,11845481
-1.33,-0.80,0.00,-0.02,0.89,11849428
-1.33,-0.80,0.01,-0.02,0.89,11853371
-1.33,-0.80,0.01,-0.02,0.89,11857324
-1.33,-0.80,0.01,-0.02,0.89,11861269
-1.33,-0.80,0.01,-0.02,0.89,11865218
-1.33,-0.80,0.01,-0.02,0.89,11869166
-1.33,-0.80,0.01,-0.02,0.89,11873108
-1.33,-0.80,0.01,-0.02,0.89,11877060
-1.33,-0.80,0.01,-0.02,0.89,11881009
-1.33,-0.80,0.02,-0.02,0.89,11884954
-1.33,-0.81,0.02,-0.02,0.89,11888915
-1.33,-0.81,0.02,-0.02,0.89,11892861
-1.33,-0.81,0.02,-0.02,0.89,11896818
-1.33,-0.81,0.02,-0.02,0.89,11900769
-1.33,-0.81,0.02,-0.02,0.89,11904715
-1.32,-0.81,0.02,-0.02,0.89,11908676
-1.32,-0.82,0.02,-0.02,0.90,11912616
-1.32,-0.82,0.02,-0.02,0.90,11916570
-1.32,-0.82,0.02,-0.02,0.90,11920505
-1.33,-0.83,0.02,-0.02,0.90,11924444
-1.33,-0.83,0.02,-0.03,0.89,11928399
-1.33,-0.83,0.02,-0.03,0.90,11932340
-1.33,-0.84,0.02,-0.03,0.90,11936295
-1.33,-0.84,0.02,-0.03,0.89,11940247
-1.34,-0.84,0.02,-0.03,0.89,11944208
-1.34,-0.84,0.02,-0.03,0.89,11948152
-1.34,-0.85,0.02,-0.02,0.89,11952103
-1.34,-0.85,0.02,-0.02,0.89,11956062
-1.34,-0.85,0.02,-0.02,0.89,11960014
-1.33,-0.85,0.01,-0.01,0.89,11963973
-1.33,-0.85,0.01,-0.01,0.89,11967917
-1.33,-0.84,0.01,-0.01,0.89,11971871
-1.32,-0.84,0.00,-0.01,0.89,11975826
-1.32,-0.84,0.00,-0.01,0.89,11979768
-1.32,-0.83,0.01,-0.01,0.89,11983726
-1.32,-0.83,0.01,-0.02,0.89,11987668
-1.32,-0.83,0.01,-0.02,0.89,11991618
-1.32,-0.83,0.01,-0.02,0.89,11995581
-1.32,-0.82,0.01,-0.02,0.89,11999522
-1.32,-0.82,0.01,-0.02,0.89,12003481
-1.32,-0.82,0.01,-0.03,0.89,12007429
-1.32,-0.82,0.01,-0.03,0.89,12011385
-1.32,-0.82,0.01,-0.03,0.89,12015347
-1.33,-0.82,0.01,-0.03,0.89,12019295
-1.33,-0.82,0.01,-0.03,0.89,12023252
-1.33,-0.81,0.00,-0.03,0.89,12027200
-1.33,-0.81,0.00,-0.02,0.89,12030926
-1.33,-0.80,-0.00,-0.02,0.89,12034876
-1.33,-0.80,-0.00,-0.02,0.89,12038818
-1.33,-0.80,0.00,-0.02,0.89,12042767
-1.33,-0.80,0.01,-0.02,0.89,12046712
-1.33,-0.80,0.02,-0.02,0.89,12050661
-1.33,-0.80,0.02,-0.02,0.89,12054613
-1.34,-0.80,0.02,-0.02,0.89,12058553
-1.34,-0.80,0.01,-0.03,0.89,12062511
-1.35,-0.80,-0.00,-0.04,0.89,12066447
-1.36,-0.79,-0.01,-0.05,0.89,12070392
-1.38,-0.80,0.01,-0.06,0.89,12074344
-1.39,-0.80,0.03,-0.06,0.89,12078281
-1.40,-0.82,0.06,-0.04,0.90,12082238
-1.39,-0.84,0.07,-0.00,0.90,12086176
-1.37,-0.85,0.06,0.06,0.90,12090129
-1.33,-0.87,0.07,0.09,0.89,12094074
-1.29,-0.89,0.09,0.10,0.90,12098016
-1.26,-0.92,0.11,0.08,0.90,12101966
-1.24,-0.95,0.13,0.04,0.91,12105916
-1.23,-0.97,0.10,-0.01,0.90,12109869
-1.25,-0.97,0.03,-0.06,0.89,12113810
-1.27,-0.95,-0.04,-0.10,0.89,12117757
-1.30,-0.91,-0.11,-0.12,0.88,12121710
-1.34,-0.85,-0.15,-0.13,0.88,12125663
-1.38,-0.79,-0.15,-0.13,0.88,12129625
-1.41,-0.75,-0.11,-0.12,0.88,12133573
-1.44,-0.73,-0.06,-0.09,0.89,12137521
-1.45,-0.72,-0.01,-0.06,0.90,12141473
-1.45,-0.73,0.01,-0.01,0.89,12145420
-1.43,-0.73,0.01,0.02,0.89,12149379
-1.41,-0.73,-0.00,0.04,0.89,12153320
-1.39,-0.72,-0.01,0.05,0.89,12157271
-1.37,-0.72,-0.00,0.04,0.89,12161223
-1.35,-0.73,0.02,0.03,0.89,12165163
-1.33,-0.74,0.04,0.02,0.89,12169121
-1.32,-0.75,0.06,-0.00,0.90,12173063
-1.32,-0.77,0.06,-0.02,0.90,12177012
-1.33,-0.78,0.04,-0.03,0.90,12180963
-1.33,-0.78,0.01,-0.03,0.89,12184909
-1.32,-0.77,-0.02,-0.02,0.89,12188866
-1.32,-0.76,-0.02,-0.01,0.89,12192813
-1.31,-0.76,-0.00,-0.00,0.89,12196750
-1.30,-0.77,0.03,-0.00,0.89,12200701
-1.30,-0.78,0.05,-0.00,0.90,12204630
-1.29,-0.79,0.06,-0.01,0.90,12208577
-1.29,-0.81,0.04,-0.02,0.90,12212519
-1.29,-0.81,0.02,-0.02,0.90,12216467
-1.30,-0.81,0.00,-0.03,0.89,12220413
-1.30,-0.80,-0.01,-0.03,0.89,12224348
-1.30,-0.79,-0.00,-0.04,0.89,12228299
-1.31,-0.79,0.02,-0.04,0.89,12232246
-1.32,-0.81,0.05,-0.05,0.90,12236192
-1.33,-0.82,0.07,-0.05,0.90,12240149
-1.34,-0.84,0.07,-0.04,0.90,12244083
-1.34,-0.85,0.05,-0.03,0.90,12248038
-1.34,-0.86,0.03,-0.02,0.89,12251986
-1.34,-0.86,0.02,-0.01,0.89,12255939
-1.33,-0.86,0.01,-0.01,0.89,12259890
-1.33,-0.86,0.02,-0.01,0.89,12263838
-1.33,-0.86,0.03,-0.01,0.89,12267784
-1.33,-0.87,0.04,-0.02,0.89,12271728
-1.33,-0.88,0.04,-0.02,0.89,12275683
-1.33,-0.88,0.03,-0.02,0.89,12279629
-1.33,-0.88,0.01,-0.02,0.89,12283576
-1.34,-0.87,0.00,-0.03,0.89,12287532
-1.34,-0.87,0.01,-0.03,0.89,12291477
-1.35,-0.87,0.02,-0.03,0.89,12295435
-1.35,-0.87,0.04,-0.03,0.90,12299379
-1.35,-0.88,0.05,-0.03,0.90,12303334
-1.35,-0.89,0.05,-0.02,0.90,12307289
-1.36,-0.90,0.04,-0.02,0.89,12311234
-1.36,-0.89,0.01,-0.02,0.89,12315196
-1.35,-0.88,-0.01,-0.02,0.89,12319145
-1.35,-0.86,-0.02,-0.02,0.89,12323098
-1.36,-0.85,-0.02,-0.02,0.89,12327052
-1.36,-0.84,-0.01,-0.02,0.89,12331005
-1.36,-0.83,-0.00,-0.03,0.89,12334957
-1.36,-0.83,0.01,-0.03,0.89,12338902
-1.36,-0.82,0.00,-0.02,0.89,12342847
-1.36,-0.81,-0.01,-0.02,0.89,12346804
-1.36,-0.80,-0.02,-0.01,0.89,12350745
-1.36,-0.79,-0.02,-0.01,0.89,12354699
-1.36,-0.78,-0.01,-0.01,0.89,12358655
-1.35,-0.77,-0.00,-0.01,0.89,12362593
-1.53,-0.58,-0.00,-0.00,-0.00,12364873
-1.53,-0.58,0.01,-0.02,0.89,12368816
-1.53,-0.58,0.01,-0.03,0.89,12372767
-1.53,-0.58,0.00,-0.03,0.89,12376712
-1.53,-0.57,-0.01,-0.03,0.89,12380663
-1.54,-0.56,-0.03,-0.03,0.89,12384622
-1.53,-0.55,-0.03,-0.02,0.88,12388569
-1.53,-0.54,-0.03,-0.02,0.89,12392514
-1.53,-0.53,-0.02,-0.02,0.89,12396472
-1.53,-0.52,-0.02,-0.02,0.89,12400419
-1.52,-0.51,-0.01,-0.02,0.89,12404372
-1.52,-0.51,-0.01,-0.01,0.89,12408318
-1.52,-0.50,-0.02,-0.02,0.89,12412268
-1.51,-0.50,-0.02,-0.02,0.89,12416223
-1.51,-0.49,-0.01,-0.02,0.89,12420168
-1.51,-0.49,-0.00,-0.02,0.89,12424119
-1.51,-0.50,0.01,-0.02,0.89,12428066
-1.50,-0.50,0.02,-0.02,0.89,12432018
-1.50,-0.51,0.02,-0.02,0.89,12435971
-1.50,-0.51,0.01,-0.02,0.89,12439910
-1.50,-0.51,-0.01,-0.03,0.89,12443865
-1.51,-0.50,-0.03,-0.03,0.89,12447811
-1.51,-0.50,-0.02,-0.04,0.89,12451757
-1.52,-0.50,0.01,-0.05,0.89,12455710
-1.53,-0.52,0.04,-0.04,0.90,12459647
-1.52,-0.54,0.07,-0.01,0.90,12463604
-1.50,-0.56,0.08,0.04,0.90,12467540
-1.47,-0.59,0.08,0.07,0.89,12471489
-1.43,-0.62,0.10,0.09,0.90,12475436
-1.40,-0.65,0.12,0.08,0.90,12479375
-1.37,-0.69,0.13,0.05,0.90,12483331
-1.36,-0.72,0.11,0.00,0.90,12487275
-1.37,-0.73,0.07,-0.05,0.90,12491226
-1.40,-0.73,0.01,-0.10,0.89,12495170
-1.43,-0.71,-0.04,-0.13,0.89,12499127
-1.47,-0.68,-0.08,-0.15,0.89,12503091
-1.52,-0.65,-0.09,-0.15,0.88,12507038
-1.56,-0.62,-0.06,-0.14,0.89,12510997
-1.59,-0.61,-0.02,-0.11,0.89,12514949
-1.61,-0.62,0.02,-0.08,0.89,12518899
-1.61,-0.63,0.05,-0.03,0.90,12522849
-1.61,-0.65,0.06,0.00,0.89,12526795
-1.59,-0.66,0.05,0.03,0.89,12530746
-1.56,-0.67,0.03,0.05,0.89,12534691
-1.54,-0.67,0.03,0.06,0.89,12538642
-1.52,-0.68,0.03,0.05,0.89,12542599
-1.50,-0.69,0.05,0.03,0.89,12546536
-1.49,-0.71,0.06,0.01,0.90,12550487
-1.48,-0.72,0.06,-0.01,0.90,12554421
-1.49,-0.73,0.04,-0.03,0.90,12558364
-1.49,-0.73,0.01,-0.04,0.89,12562326
-1.50,-0.72,-0.01,-0.04,0.89,12566277
-1.50,-0.70,-0.03,-0.03,0.89,12570230
-1.50,-0.68,-0.04,-0.02,0.89,12574169
-1.49,-0.67,-0.03,-0.01,0.89,12578122
-1.48,-0.66,-0.02,0.01,0.89,12582077
-1.47,-0.65,-0.02,0.01,0.89,12586022
-1.45,-0.64,-0.02,0.02,0.89,12589981
-1.44,-0.62,-0.03,0.02,0.89,12593922
-1.43,-0.61,-0.05,0.02,0.88,12597871
-1.42,-0.58,-0.06,0.01,0.88,12601826
-1.41,-0.56,-0.06,-0.01,0.88,12605769
-1.41,-0.54,-0.05,-0.03,0.88,12609729
-1.42,-0.53,-0.02,-0.04,0.89,12613671
-1.43,-0.53,0.00,-0.06,0.89,12617614
-1.44,-0.54,0.02,-0.06,0.89,12621567
-1.45,-0.55,0.03,-0.06,0.89,12625511
-1.46,-0.56,0.03,-0.05,0.89,12629464
-1.46,-0.57,0.03,-0.04,0.89,12633403
-1.46,-0.58,0.03,-0.03,0.89,12637357
-1.46,-0.59,0.05,-0.02,0.90,12641307
-1.46,-0.61,0.06,-0.02,0.90,12645247
-1.45,-0.63,0.07,-0.02,0.90,12649199
-1.45,-0.65,0.07,-0.01,0.90,12653139
-1.45,-0.67,0.06,-0.01,0.89,12657104
-1.44,-0.68,0.04,-0.01,0.89,12661050
-1.44,-0.68,0.02,-0.02,0.89,12664992
-1.44,-0.68,0.00,-0.03,0.89,12668943
-1.45,-0.68,0.00,-0.03,0.89,12672887
-1.45,-0.68,0.01,-0.04,0.89,12676844
-1.46,-0.69,0.03,-0.04,0.89,12680790
-1.46,-0.70,0.04,-0.04,0.90,12684737
-1.47,-0.71,0.04,-0.03,0.90,12688693
-1.47,-0.71,0.03,-0.02,0.90,12692635
-1.47,-0.71,0.02,-0.02,0.89,12696587
-1.46,-0.71,0.01,-0.01,0.89,12700529
-1.46,-0.71,0.01,-0.01,0.89,12704480
-1.45,-0.71,0.01,-0.00,0.89,12708431
-1.44,-0.71,0.01,-0.00,0.89,12712375
-1.44,-0.71,0.00,-0.00,0.89,12716329
-1.43,-0.70,-0.01,-0.01,0.89,12720273
-1.43,-0.69,-0.02,-0.01,0.89,12724223
-1.42,-0.67,-0.04,-0.01,0.89,12728176
-1.42,-0.65,-0.05,-0.01,0.89,12732119
-1.42,-0.63,-0.05,-0.02,0.88,12736072
-1.42,-0.62,-0.04,-0.02,0.89,12740010
-1.42,-0.61,-0.02,-0.02,0.89,12743965
-1.42,-0.60,-0.01,-0.03,0.89,12747914
-1.42,-0.60,0.00,-0.03,0.89,12751854
-1.42,-0.61,0.01,-0.03,0.89,12755811
-1.42,-0.61,0.01,-0.03,0.89,12759755
-1.43,-0.61,0.00,-0.03,0.89,12763705
-1.43,-0.61,0.00,-0.03,0.89,12767663
-1.43,-0.61,0.01,-0.03,0.89,12771612
-1.43,-0.62,0.02,-0.03,0.90,12775563
-1.43,-0.63,0.03,-0.03,0.90,12779506
-1.43,-0.64,0.04,-0.03,0.90,12783461
-1.43,-0.65,0.04,-0.02,0.90,12787407
-1.43,-0.66,0.03,-0.02,0.90,12791345
-1.42,-0.67,0.03,-0.01,0.89,12795306
-1.42,-0.68,0.03,-0.01,0.89,12799251
-1.42,-0.69,0.03,-0.01,0.89,12803200
-1.41,-0.70,0.04,-0.02,0.90,12807156
-1.41,-0.72,0.05,-0.02,0.90,12811095
-1.41,-0.73,0.06,-0.02,0.90,12815051
-1.41,-0.75,0.06,-0.03,0.90,12818992
-1.42,-0.77,0.06,-0.03,0.90,12822941
-1.42,-0.78,0.05,-0.03,0.90,12826896
-1.42,-0.79,0.04,-0.03,0.90,12830833
-1.43,-0.80,0.04,-0.03,0.90,12834779
-1.43,-0.81,0.04,-0.03,0.90,12838716
-1.43,-0.81,0.04,-0.03,0.90,12842657
-1.43,-0.82,0.04,-0.03,0.90,12846610
-1.43,-0.83,0.04,-0.02,0.90,12850555
-1.43,-0.83,0.03,-0.02,0.89,12854506
-1.43,-0.84,0.02,-0.01,0.90,12858452
-1.43,-0.83,0.01,-0.01,0.89,12862413
-1.42,-0.83,0.01,-0.01,0.89,12866362
-1.42,-0.83,0.01,-0.01,0.89,12870315
-1.42,-0.82,0.01,-0.02,0.89,12874268
-1.42,-0.82,0.01,-0.02,0.89,12878206
-1.42,-0.81,0.01,-0.02,0.89,12882171
-1.42,-0.80,0.00,-0.02,0.89,12885882
-1.42,-0.80,-0.00,-0.02,0.89,12889827
-1.43,-0.79,-0.01,-0.02,0.89,12893786
-1.43,-0.78,-0.01,-0.02,0.89,12897730
-1.43,-0.76,-0.02,-0.02,0.89,12901688
-1.43,-0.75,-0.01,-0.02,0.89,12905640
-1.43,-0.75,-0.01,-0.02,0.89,12909597
-1.42,-0.74,-0.01,-0.02,0.89,12913547
-1.42,-0.73,-0.02,-0.01,0.89,12917489
-1.42,-0.71,-0.02,-0.01,0.89,12921439
-1.41,-0.70,-0.03,-0.01,0.89,12925391
-1.41,-0.69,-0.03,-0.01,0.89,12929340
-1.40,-0.68,-0.02,-0.01,0.89,12933295
-1.40,-0.67,-0.01,-0.01,0.89,12937238
-1.40,-0.67,-0.00,-0.02,0.89,12941185
-1.40,-0.67,0.00,-0.02,0.89,12945138
-1.40,-0.67,0.00,-0.02,0.89,12949081
-1.40,-0.67,0.00,-0.03,0.89,12953027
-1.40,-0.67,-0.00,-0.03,0.89,12956966
-1.40,-0.66,-0.00,-0.02,0.89,12960909
-1.40,-0.66,0.00,-0.02,0.89,12964856
-1.40,-0.67,0.01,-0.02,0.89,12968798
-1.40,-0.67,0.02,-0.02,0.89,12972748
-1.40,-0.68,0.03,-0.02,0.89,12976688
-1.39,-0.69,0.03,-0.02,0.90,12980639
-1.39,-0.70,0.04,-0.02,0.89,12984588
-1.39,-0.71,0.04,-0.02,0.89,12988532
-1.39,-0.72,0.04,-0.02,0.89,12992489
-1.39,-0.73,0.04,-0.02,0.89,12996434
-1.39,-0.74,0.04,-0.02,0.90,13000384
-1.39,-0.75,0.04,-0.03,0.89,13004333
-1.39,-0.76,0.05,-0.03,0.90,13008273
-1.39,-0.78,0.05,-0.03,0.90,13012228
-1.40,-0.79,0.05,-0.03,0.90,13016163
-1.40,-0.80,0.04,-0.03,0.90,13020105
-1.41,-0.81,0.04,-0.03,0.90,13024054
-1.41,-0.81,0.04,-0.03,0.90,13027996
-1.41,-0.82,0.04,-0.03,0.90,13031947
-1.41,-0.83,0.04,-0.02,0.90,13035889
-1.41,-0.84,0.04,-0.02,0.90,13039844
-1.41,-0.84,0.04,-0.02,0.90,13043782
-1.41,-0.85,0.03,-0.02,0.90,13047728
-1.41,-0.85,0.02,-0.02,0.89,13051680
-1.41,-0.85,0.02,-0.02,0.90,13055620
-1.41,-0.84,0.01,-0.02,0.89,13059581
-1.41,-0.84,0.01,-0.02,0.89,13063527
-1.41,-0.83,0.00,-0.02,0.89,13067477
-1.41,-0.83,0.00,-0.02,0.89,13071427
-1.42,-0.82,0.00,-0.02,0.89,13075368
-1.42,-0.81,-0.00,-0.02,0.89,13079321
-1.42,-0.80,-0.01,-0.02,0.89,13083269
-1.42,-0.79,-0.01,-0.02,0.89,13087227
-1.42,-0.78,-0.01,-0.02,0.89,13091180
-1.41,-0.77,-0.02,-0.01,0.89,13095130
-1.41,-0.76,-0.02,-0.01,0.89,13099095
-1.41,-0.75,-0.02,-0.01,0.89,13103035
-1.40,-0.74,-0.02,-0.01,0.89,13106984
-1.40,-0.73,-0.02,-0.01,0.89,13110945
-1.39,-0.72,-0.02,-0.01,0.89,13114889
-1.39,-0.70,-0.03,-0.01,0.89,13118844
-1.38,-0.69,-0.03,-0.01,0.89,13122798
-1.38,-0.68,-0.03,-0.01,0.89,13126737
-1.38,-0.67,-0.02,-0.02,0.89,13130700
-1.38,-0.66,-0.02,-0.02,0.89,13134645
-1.38,-0.65,-0.01,-0.02,0.89,13138597
-1.38,-0.65,-0.01,-0.02,0.89,13142548
-1.38,-0.65,0.00,-0.02,0.89,13146481
-1.37,-0.65,0.01,-0.02,0.89,13150436
-1.37,-0.66,0.01,-0.02,0.89,13154379
-1.37,-0.66,0.02,-0.02,0.89,13158332
-1.37,-0.67,0.02,-0.02,0.89,13162285
-1.37,-0.67,0.02,-0.02,0.89,13166234
-1.36,-0.68,0.03,-0.02,0.89,13170189
-1.36,-0.69,0.03,-0.02,0.90,13174126
-1.36,-0.70,0.03,-0.02,0.90,13178072
-1.36,-0.71,0.04,-0.03,0.90,13182022
-1.36,-0.72,0.04,-0.03,0.89,13185969
-1.37,-0.74,0.04,-0.03,0.90,13189922
-1.37,-0.75,0.05,-0.03,0.89,13193866
-1.37,-0.76,0.05,-0.03,0.90,13197819
-1.38,-0.78,0.06,-0.03,0.90,13201764
-1.38,-0.80,0.06,-0.03,0.90,13205708
-1.38,-0.81,0.06,-0.03,0.90,13209659
-1.39,-0.83,0.06,-0.03,0.90,13213603
-1.39,-0.84,0.06,-0.03,0.90,13217559
-1.39,-0.85,0.05,-0.03,0.90,13221508
-1.40,-0.86,0.05,-0.03,0.90,13225453
-1.40,-0.87,0.05,-0.03,0.90,13229402
-1.40,-0.88,0.05,-0.02,0.90,13233343
-1.40,-0.89,0.05,-0.02,0.90,13237294
-1.40,-0.90,0.04,-0.02,0.90,13241229
-1.40,-0.90,0.03,-0.02,0.89,13245177
-1.40,-0.89,0.02,-0.02,0.89,13249133
-1.41,-0.89,0.01,-0.03,0.89,13253082
-1.41,-0.88,0.00,-0.03,0.89,13257041
-1.41,-0.87,-0.00,-0.03,0.89,13260984
-1.42,-0.86,-0.00,-0.02,0.89,13264931
-1.42,-0.85,-0.01,-0.02,0.89,13268883
-1.41,-0.84,-0.01,-0.01,0.89,13272825
-1.41,-0.83,-0.01,-0.01,0.89,13276779
-1.41,-0.82,-0.02,-0.01,0.89,13280727
-1.40,-0.80,-0.02,-0.01,0.89,13284669
-1.40,-0.79,-0.02,-0.00,0.89,13288620
-1.39,-0.78,-0.02,-0.01,0.89,13292567
-1.39,-0.76,-0.03,-0.01,0.89,13296528
-1.38,-0.75,-0.03,-0.01,0.89,13300473
-1.38,-0.73,-0.03,-0.01,0.89,13304417
-1.38,-0.72,-0.04,-0.01,0.89,13308380
-1.37,-0.70,-0.04,-0.01,0.89,13312324
-1.37,-0.68,-0.04,-0.01,0.89,13316273
-1.36,-0.67,-0.04,-0.01,0.89,13320223
-1.36,-0.65,-0.03,-0.01,0.89,13324168
-1.36,-0.64,-0.02,-0.02,0.89,13328122
-1.35,-0.64,-0.02,-0.02,0.89,13332067
-1.35,-0.64,-0.00,-0.02,0.89,13336013
-1.35,-0.64,0.00,-0.02,0.89,13339957
-1.35,-0.64,0.01,-0.02,0.89,13343911
-1.35,-0.65,0.01,-0.01,0.89,13347873
-1.34,-0.65,0.02,-0.02,0.89,13351811
-1.34,-0.66,0.02,-0.02,0.89,13355766
-1.34,-0.67,0.03,-0.03,0.90,13359709
-1.35,-0.68,0.04,-0.04,0.90,13363656
-1.35,-0.70,0.04,-0.04,0.90,13367605
-1.36,-0.71,0.05,-0.04,0.90,13371540
-1.36,-0.73,0.05,-0.04,0.90,13375480
-1.36,-0.74,0.05,-0.03,0.90,13379421
-1.37,-0.76,0.06,-0.03,0.90,13383361
-1.37,-0.78,0.06,-0.03,0.90,13387321
-1.38,-0.80,0.07,-0.03,0.90,13391257
-1.38,-0.82,0.07,-0.03,0.90,13395204
-1.38,-0.84,0.07,-0.03,0.90,13399148
-1.38,-0.86,0.07,-0.02,0.90,13403100
-1.39,-0.88,0.07,-0.02,0.90,13407051
-1.39,-0.89,0.06,-0.02,0.90,13410994
-1.39,-0.90,0.06,-0.02,0.90,13414944
-1.39,-0.91,0.05,-0.02,0.90,13418884
-1.39,-0.92,0.05,-0.02,0.90,13422834
-1.39,-0.93,0.05,-0.02,0.90,13426792
-1.39,-0.93,0.04,-0.02,0.90,13430732
-1.39,-0.93,0.03,-0.02,0.90,13434686
-1.39,-0.93,0.01,-0.02,0.89,13438628
-1.39,-0.92,-0.00,-0.02,0.89,13442576
-1.39,-0.91,-0.01,-0.01,0.89,13446533
-1.39,-0.89,-0.01,-0.01,0.89,13450481
-1.39,-0.88,-0.02,-0.01,0.89,13454432
-1.38,-0.87,-0.01,-0.00,0.89,13458375
-1.38,-0.85,-0.01,-0.00,0.89,13462327
-1.37,-0.84,-0.01,-0.00,0.89,13466283
-1.37,-0.83,-0.02,-0.00,0.89,13470223
-1.36,-0.81,-0.03,-0.00,0.89,13474175
-1.36,-0.79,-0.04,-0.00,0.88,13478120
-1.35,-0.77,-0.04,-0.01,0.89,13482061
-1.35,-0.75,-0.05,-0.01,0.88,13486016
-1.34,-0.73,-0.05,-0.02,0.89,13489961
-1.34,-0.72,-0.04,-0.02,0.89,13493917
-1.34,-0.70,-0.04,-0.02,0.89,13497873
-1.34,-0.69,-0.03,-0.02,0.89,13501826
-1.34,-0.68,-0.02,-0.02,0.89,13505776
-1.34,-0.67,-0.02,-0.02,0.89,13509721
-1.34,-0.67,-0.02,-0.02,0.89,13513672
-1.34,-0.66,-0.01,-0.02,0.89,13517628
-1.34,-0.66,-0.00,-0.03,0.89,13521567
-1.34,-0.66,0.01,-0.03,0.89,13525522
-1.35,-0.67,0.02,-0.03,0.89,13529462
-1.35,-0.68,0.02,-0.03,0.90,13533411
-1.35,-0.69,0.03,-0.03,0.90,13537367
-1.35,-0.70,0.03,-0.03,0.90,13541306
-1.36,-0.71,0.03,-0.03,0.90,13545251
-1.36,-0.72,0.03,-0.04,0.90,13549186
-1.37,-0.73,0.04,-0.04,0.90,13553133
-1.37,-0.75,0.04,-0.04,0.90,13557081
-1.38,-0.76,0.05,-0.04,0.90,13561020
-1.38,-0.78,0.06,-0.03,0.90,13564978
-1.38,-0.79,0.06,-0.02,0.90,13568918
-1.38,-0.81,0.06,-0.02,0.90,13572863
-1.38,-0.82,0.05,-0.02,0.89,13576814
-1.38,-0.84,0.05,-0.02,0.89,13580756
-1.38,-0.85,0.05,-0.02,0.89,13584708
-1.38,-0.86,0.05,-0.02,0.90,13588646
-1.37,-0.87,0.05,-0.01,0.90,13592591
-1.37,-0.88,0.05,-0.01,0.89,13596543
-1.36,-0.89,0.04,-0.01,0.89,13600496
-1.36,-0.89,0.03,-0.01,0.89,13604451
-1.36,-0.89,0.02,-0.01,0.90,13608392
-1.35,-0.89,0.01,-0.01,0.89,13612354
-1.35,-0.88,0.01,-0.01,0.89,13616300
-1.35,-0.88,0.01,-0.01,0.89,13620251
-1.34,-0.87,0.00,-0.01,0.89,13624200
-1.34,-0.87,-0.00,-0.01,0.89,13628146
-1.34,-0.86,-0.01,-0.01,0.89,13632109
-1.33,-0.85,-0.01,-0.01,0.89,13636052
-1.33,-0.83,-0.02,-0.02,0.89,13639999
-1.33,-0.82,-0.01,-0.02,0.89,13643959
-1.34,-0.81,-0.01,-0.02,0.89,13647907
-1.34,-0.81,-0.00,-0.02,0.89,13651866
-1.33,-0.80,0.00,-0.02,0.89,13655813
-1.34,-0.80,0.00,-0.02,0.89,13659745
-1.34,-0.79,-0.00,-0.03,0.89,13663706
-1.34,-0.78,-0.01,-0.04,0.89,13667642
-1.35,-0.78,-0.01,-0.04,0.89,13671592
-1.36,-0.77,-0.01,-0.04,0.89,13675554
-1.36,-0.77,-0.00,-0.04,0.89,13679497
-1.37,-0.76,0.00,-0.04,0.90,13683449
-1.37,-0.76,0.01,-0.04,0.89,13687397
-1.38,-0.76,0.01,-0.04,0.90,13691350
-1.38,-0.76,0.01,-0.04,0.89,13695305
-1.39,-0.77,0.01,-0.04,0.90,13699251
-1.39,-0.77,0.01,-0.04,0.89,13703205
-1.39,-0.77,0.01,-0.03,0.89,13707152
-1.39,-0.77,0.01,-0.02,0.89,13711111
-1.39,-0.77,0.02,-0.01,0.89,13715065
-1.39,-0.77,0.02,-0.01,0.89,13719013
-1.38,-0.78,0.01,-0.01,0.89,13722978
-1.38,-0.78,0.01,-0.02,0.89,13726923
-1.38,-0.78,0.01,-0.02,0.89,13730886
-1.37,-0.78,0.01,-0.01,0.89,13734831
-1.37,-0.78,0.01,-0.00,0.89,13738778
-1.36,-0.77,0.00,-0.00,0.89,13742722
-1.35,-0.77,-0.00,-0.00,0.89,13746656
-1.35,-0.77,0.00,-0.00,0.89,13750600
-1.34,-0.76,0.00,-0.01,0.89,13754536
-1.33,-0.76,0.01,-0.01,0.89,13758486
-1.33,-0.77,0.01,-0.00,0.89,13762438
-1.32,-0.77,0.01,-0.00,0.90,13766377
-1.31,-0.77,0.01,-0.00,0.89,13770338
-1.31,-0.76,0.00,-0.00,0.89,13774278
-1.30,-0.76,-0.00,-0.01,0.89,13778216
-1.30,-0.76,0.00,-0.02,0.89,13782168
-1.30,-0.76,0.01,-0.03,0.89,13786113
-1.31,-0.76,0.02,-0.03,0.90,13790063
-1.31,-0.77,0.03,-0.03,0.89,13794017
-1.31,-0.78,0.03,-0.03,0.90,13797968
-1.32,-0.79,0.03,-0.04,0.89,13801924
-1.33,-0.79,0.03,-0.05,0.90,13805872
-1.34,-0.80,0.03,-0.05,0.89,13809821
-1.35,-0.81,0.03,-0.05,0.90,13813759
-1.36,-0.82,0.04,-0.05,0.90,13817706
-1.37,-0.83,0.05,-0.04,0.90,13821660
-1.37,-0.84,0.05,-0.04,0.90,13825599
-1.38,-0.85,0.05,-0.04,0.90,13829553
-1.39,-0.86,0.05,-0.04,0.90,13833493
-1.39,-0.87,0.04,-0.04,0.90,13837442
-1.40,-0.88,0.03,-0.03,0.90,13841381
-1.40,-0.88,0.03,-0.03,0.89,13845332
-1.40,-0.88,0.02,-0.02,0.89,13849288
-1.40,-0.88,0.02,-0.01,0.89,13853231
-1.39,-0.88,0.02,-0.01,0.90,13857186
-1.39,-0.88,0.02,-0.01,0.89,13861137
-1.39,-0.88,0.01,-0.01,0.89,13865084
-1.38,-0.87,0.00,-0.01,0.89,13869036
-1.38,-0.86,-0.01,-0.00,0.89,13872977
-1.37,-0.85,-0.01,0.01,0.89,13876938
-1.36,-0.84,-0.02,0.01,0.89,13880881
-1.35,-0.83,-0.02,0.01,0.89,13884826
-1.34,-0.81,-0.02,0.00,0.89,13888778
-1.33,-0.80,-0.02,0.00,0.89,13892498
-1.33,-0.79,-0.02,-0.00,0.89,13896446
-1.32,-0.78,-0.02,0.00,0.89,13900161
-1.31,-0.76,-0.03,0.00,0.89,13904108
-1.31,-0.75,-0.04,-0.00,0.89,13908060
-1.30,-0.73,-0.04,-0.01,0.88,13911998
-1.30,-0.72,-0.03,-0.02,0.89,13915947
-1.30,-0.71,-0.02,-0.03,0.89,13919892
-1.30,-0.70,-0.01,-0.03,0.89,13923831
-1.31,-0.70,0.00,-0.03,0.89,13927787
-1.31,-0.70,0.01,-0.03,0.89,13931725
-1.32,-0.70,0.01,-0.04,0.89,13935677
-1.33,-0.71,0.01,-0.05,0.89,13939625
-1.34,-0.71,0.02,-0.05,0.89,13943572
-1.35,-0.72,0.02,-0.05,0.90,13947525
-1.36,-0.72,0.02,-0.05,0.89,13951470
-1.36,-0.73,0.03,-0.04,0.90,13955430
-1.37,-0.75,0.04,-0.04,0.89,13959374
-1.38,-0.76,0.05,-0.04,0.90,13963329
-1.38,-0.77,0.05,-0.04,0.90,13967279
-1.39,-0.79,0.05,-0.04,0.90,13971215
-1.39,-0.80,0.05,-0.03,0.90,13975167
-1.39,-0.81,0.04,-0.02,0.89,13979114
-1.38,-0.82,0.04,-0.01,0.90,13983064
-1.38,-0.83,0.03,-0.00,0.89,13987019
-1.37,-0.84,0.04,-0.00,0.90,13990960
-1.36,-0.84,0.04,-0.00,0.89,13994915
-1.36,-0.85,0.04,-0.00,0.90,13998863
-1.35,-0.86,0.04,0.00,0.89,14002809
-1.34,-0.86,0.03,0.01,0.89,14006758
-1.33,-0.86,0.02,0.01,0.89,14010711
-1.32,-0.86,0.01,0.01,0.89,14014665
-1.31,-0.86,0.01,0.00,0.89,14018606
-1.31,-0.85,0.00,-0.00,0.89,14022560
-1.30,-0.85,0.00,-0.01,0.89,14026500
-1.30,-0.84,-0.00,-0.01,0.89,14030442
-1.30,-0.83,-0.00,-0.01,0.89,14034389
-1.30,-0.82,-0.01,-0.02,0.89,14038337
-1.30,-0.82,-0.01,-0.03,0.89,14042290
-1.30,-0.81,-0.01,-0.03,0.89,14046236
-1.31,-0.80,-0.00,-0.03,0.89,14050173
-1.31,-0.80,0.01,-0.03,0.89,14054125
-1.32,-0.80,0.01,-0.04,0.89,14058065
-1.33,-0.80,0.02,-0.05,0.89,14062024
-1.35,-0.80,0.02,-0.06,0.89,14065962
-1.36,-0.81,0.02,-0.06,0.89,14069907
-1.37,-0.81,0.02,-0.05,0.90,14073858
-1.38,-0.81,0.01,-0.05,0.89,14077803
-1.39,-0.81,0.01,-0.05,0.89,14081767
-1.40,-0.81,0.01,-0.04,0.89,14085705
-1.40,-0.81,0.02,-0.04,0.90,14089649
-1.41,-0.82,0.03,-0.04,0.89,14093605
-1.41,-0.82,0.03,-0.03,0.89,14097549
-1.41,-0.82,0.02,-0.02,0.89,14101504
-1.41,-0.82,0.01,-0.01,0.89,14105453
-1.40,-0.82,0.00,-0.00,0.89,14109392
-1.39,-0.81,-0.01,0.00,0.89,14113348
-1.38,-0.81,-0.01,0.01,0.89,14117295
-1.37,-0.80,-0.01,0.01,0.89,14121250
-1.36,-0.80,-0.00,0.01,0.89,14125190
-1.35,-0.79,0.00,0.01,0.89,14129135
-1.33,-0.79,0.00,0.01,0.89,14133086
-1.32,-0.78,-0.00,0.01,0.89,14137026
-1.31,-0.78,-0.01,0.01,0.89,14140980
-1.30,-0.77,-0.01,0.00,0.89,14144924
-1.30,-0.76,-0.02,-0.00,0.89,14148864
-1.29,-0.75,-0.02,-0.01,0.89,14152818
-1.29,-0.75,-0.01,-0.02,0.89,14156767
-1.29,-0.74,-0.01,-0.03,0.89,14160723
-1.29,-0.74,0.00,-0.03,0.89,14164666
-1.30,-0.74,0.00,-0.03,0.89,14168612
-1.30,-0.74,0.01,-0.03,0.89,14172561
-1.31,-0.74,0.01,-0.04,0.89,14176504
-1.32,-0.75,0.02,-0.05,0.89,14180463
-1.33,-0.76,0.03,-0.06,0.90,14184403
-1.35,-0.77,0.04,-0.06,0.90,14188355
-1.36,-0.78,0.04,-0.06,0.90,14192300
-1.37,-0.79,0.05,-0.06,0.90,14196246
-1.38,-0.80,0.05,-0.06,0.90,14200194
-1.40,-0.82,0.05,-0.05,0.90,14204132
-1.40,-0.83,0.05,-0.05,0.90,14208081
-1.41,-0.84,0.05,-0.04,0.90,14212023
-1.41,-0.85,0.05,-0.03,0.90,14215961
-1.41,-0.87,0.05,-0.02,0.89,14219913
-1.41,-0.87,0.04,-0.01,0.90,14223856
-1.40,-0.88,0.04,-0.00,0.89,14227807
-1.39,-0.88,0.03,0.01,0.89,14231760
-1.38,-0.88,0.02,0.01,0.89,14235710
-1.36,-0.88,0.01,0.02,0.89,14239662
-1.35,-0.88,0.01,0.02,0.89,14243607
-1.33,-0.87,0.00,0.03,0.89,14247562
-1.32,-0.86,-0.00,0.02,0.89,14251498
-1.31,-0.86,-0.00,0.01,0.89,14255447
-1.30,-0.85,-0.01,0.01,0.89,14259389
-1.29,-0.83,-0.01,0.00,0.89,14263331
-1.29,-0.82,-0.02,-0.01,0.89,14267294
-1.29,-0.81,-0.02,-0.01,0.89,14271240
-1.29,-0.80,-0.02,-0.02,0.89,14275186
-1.29,-0.79,-0.02,-0.03,0.89,14279141
-1.30,-0.78,-0.01,-0.04,0.89,14283077
-1.30,-0.77,-0.01,-0.04,0.89,14287035
-1.31,-0.77,-0.00,-0.05,0.89,14290975
-1.33,-0.77,0.01,-0.05,0.89,14294924
-1.34,-0.77,0.01,-0.06,0.90,14298880
-1.35,-0.77,0.01,-0.06,0.89,14302822
-1.37,-0.77,0.01,-0.06,0.89,14306777
-1.38,-0.77,0.01,-0.05,0.89,14310724
-1.39,-0.77,0.02,-0.05,0.90,14314671
-1.40,-0.78,0.02,-0.05,0.89,14318626
-1.41,-0.78,0.02,-0.05,0.90,14322571
-1.41,-0.79,0.03,-0.04,0.89,14326530
-1.42,-0.79,0.03,-0.03,0.89,14330476
-1.41,-0.80,0.03,-0.02,0.89,14334425
-1.41,-0.80,0.02,-0.01,0.89,14338378
-1.40,-0.80,0.01,0.00,0.89,14342309
-1.39,-0.80,0.01,0.01,0.89,14346256
-1.37,-0.80,0.01,0.02,0.89,14350199
-1.36,-0.80,0.01,0.03,0.89,14354157
-1.34,-0.80,0.01,0.03,0.89,14358099
-1.32,-0.79,0.01,0.03,0.89,14362053
-1.30,-0.79,0.01,0.03,0.89,14366004
-1.29,-0.79,0.00,0.02,0.89,14369944
-1.28,-0.79,-0.00,0.01,0.89,14373897
-1.27,-0.78,-0.01,0.00,0.89,14377835
-1.27,-0.77,-0.01,-0.01,0.89,14381783
-1.26,-0.77,-0.01,-0.02,0.89,14385740
-1.27,-0.76,-0.00,-0.03,0.89,14389680
-1.28,-0.76,0.00,-0.04,0.89,14393635
-1.29,-0.76,0.01,-0.05,0.89,14397580
-1.30,-0.76,0.02,-0.05,0.89,14401524
-1.31,-0.77,0.02,-0.06,0.90,14405465
-1.33,-0.77,0.02,-0.07,0.90,14409422
-1.35,-0.78,0.03,-0.08,0.90,14413378
-1.36,-0.79,0.04,-0.07,0.89,14417329
-1.38,-0.80,0.04,-0.06,0.90,14421269
-1.39,-0.81,0.04,-0.06,0.90,14425216
-1.40,-0.82,0.04,-0.06,0.90,14429151
-1.41,-0.83,0.05,-0.05,0.90,14433108
-1.42,-0.84,0.05,-0.05,0.90,14437050
-1.42,-0.85,0.04,-0.03,0.90,14441001
-1.42,-0.86,0.04,-0.02,0.89,14444949
-1.41,-0.86,0.03,-0.01,0.90,14448894
-1.41,-0.87,0.02,0.00,0.89,14452844
-1.40,-0.86,0.02,0.01,0.89,14456786
-1.38,-0.86,0.01,0.02,0.89,14460743
-1.36,-0.86,0.00,0.03,0.89,14464681
-1.35,-0.85,0.00,0.04,0.89,14468628
-1.33,-0.84,-0.00,0.04,0.89,14472576
-1.31,-0.83,-0.01,0.03,0.89,14476518
-1.29,-0.82,-0.01,0.03,0.89,14480475
-1.28,-0.81,-0.02,0.02,0.89,14484420
-1.27,-0.80,-0.02,0.01,0.89,14488369
-1.26,-0.79,-0.02,-0.01,0.89,14492320
-1.26,-0.78,-0.02,-0.02,0.89,14496274
-1.27,-0.76,-0.02,-0.03,0.89,14500230
-1.28,-0.76,-0.02,-0.04,0.89,14504178
-1.29,-0.75,-0.01,-0.05,0.89,14508127
-1.30,-0.74,-0.00,-0.06,0.89,14512077
-1.32,-0.74,0.00,-0.07,0.90,14516019
-1.34,-0.74,0.01,-0.08,0.90,14519973
-1.36,-0.74,0.01,-0.08,0.90,14523918
-1.38,-0.75,0.02,-0.07,0.89,14527868
-1.39,-0.75,0.02,-0.06,0.90,14531823
-1.40,-0.76,0.02,-0.06,0.89,14535765
-1.41,-0.76,0.03,-0.06,0.89,14539727
-1.42,-0.77,0.03,-0.05,0.89,14543674
-1.43,-0.78,0.04,-0.04,0.89,14547626
-1.43,-0.79,0.04,-0.02,0.89,14551574
-1.42,-0.80,0.03,-0.00,0.89,14555519
-1.41,-0.80,0.02,0.01,0.89,14559469
-1.40,-0.80,0.01,0.01,0.89,14563404
-1.38,-0.80,0.01,0.02,0.89,14567362
-1.37,-0.80,0.01,0.03,0.89,14571303
-1.34,-0.80,0.02,0.04,0.89,14575247
-1.32,-0.80,0.02,0.04,0.89,14579202
-1.30,-0.80,0.02,0.04,0.89,14583136
-1.29,-0.80,0.01,0.03,0.89,14587096
-1.27,-0.80,0.00,0.02,0.89,14591030
-1.26,-0.79,-0.00,0.01,0.89,14594974
-1.25,-0.79,-0.01,-0.00,0.89,14598922
-1.26,-0.78,-0.01,-0.02,0.89,14602862
-1.26,-0.78,-0.00,-0.04,0.89,14606816
-1.27,-0.77,0.00,-0.04,0.89,14610761
-1.28,-0.77,0.01,-0.05,0.89,14614715
-1.29,-0.78,0.02,-0.06,0.89,14618672
-1.31,-0.78,0.02,-0.07,0.89,14622622
-1.34,-0.78,0.02,-0.09,0.90,14626576
-1.36,-0.79,0.03,-0.09,0.90,14630525
-1.38,-0.79,0.03,-0.08,0.89,14634480
-1.40,-0.80,0.03,-0.07,0.90,14638410
-1.41,-0.81,0.04,-0.06,0.90,14642348
-1.43,-0.82,0.04,-0.06,0.90,14646304
-1.43,-0.83,0.04,-0.05,0.90,14650246
-1.44,-0.84,0.04,-0.04,0.90,14654206
-1.44,-0.85,0.04,-0.02,0.90,14658154
-1.43,-0.86,0.03,-0.00,0.90,14662102
-1.42,-0.86,0.02,0.01,0.89,14666056
-1.40,-0.86,0.01,0.02,0.89,14669998
-1.38,-0.85,0.01,0.03,0.89,14673954
-1.36,-0.85,0.00,0.04,0.89,14677898
-1.34,-0.84,0.00,0.05,0.89,14681844
-1.32,-0.84,0.00,0.04,0.89,14685792
-1.30,-0.83,-0.00,0.04,0.89,14689733
-1.28,-0.82,-0.01,0.03,0.88,14693693
-1.26,-0.81,-0.01,0.03,0.89,14697630
-1.25,-0.80,-0.02,0.01,0.89,14701590
-1.25,-0.79,-0.02,-0.00,0.89,14705537
-1.25,-0.78,-0.02,-0.02,0.89,14709478
-1.26,-0.77,-0.02,-0.04,0.89,14713436
-1.27,-0.76,-0.01,-0.05,0.89,14717380
-1.28,-0.76,-0.00,-0.06,0.89,14721336
-1.30,-0.76,0.00,-0.07,0.89,14725278
-1.32,-0.76,0.01,-0.08,0.89,14729227
-1.34,-0.76,0.01,-0.10,0.90,14733176
-1.37,-0.76,0.02,-0.10,0.90,14737119
-1.39,-0.77,0.02,-0.08,0.90,14741064
-1.40,-0.77,0.02,-0.07,0.89,14745007
-1.42,-0.78,0.03,-0.06,0.90,14748952
-1.43,-0.79,0.03,-0.05,0.90,14752905
-1.43,-0.80,0.04,-0.04,0.90,14756848
-1.43,-0.81,0.04,-0.02,0.89,14760805
-1.43,-0.81,0.03,-0.00,0.90,14764744
-1.41,-0.82,0.03,0.01,0.89,14768698
-1.40,-0.82,0.02,0.02,0.89,14772656
-1.38,-0.82,0.02,0.03,0.89,14776603
-1.35,-0.82,0.01,0.05,0.89,14780563
-1.33,-0.82,0.02,0.06,0.89,14784506
-1.30,-0.82,0.02,0.05,0.89,14788451
-1.28,-0.82,0.01,0.05,0.89,14792405
-1.26,-0.82,0.01,0.04,0.89,14796348
-1.24,-0.81,0.00,0.03,0.89,14800309
-1.23,-0.81,-0.01,0.02,0.89,14804247
-1.22,-0.80,-0.01,-0.00,0.89,14808198
-1.23,-0.79,-0.01,-0.03,0.89,14812145
-1.24,-0.79,-0.01,-0.05,0.90,14816091
-1.25,-0.78,0.00,-0.06,0.90,14820039
-1.26,-0.78,0.01,-0.06,0.90,14823977
-1.28,-0.79,0.02,-0.07,0.90,14827929
-1.31,-0.79,0.02,-0.09,0.90,14831871
-1.34,-0.80,0.03,-0.11,0.90,14835811
-1.37,-0.81,0.03,-0.10,0.90,14839759
-1.39,-0.81,0.03,-0.09,0.89,14843697
-1.40,-0.82,0.03,-0.07,0.90,14847646
-1.42,-0.83,0.04,-0.06,0.89,14851591
-1.43,-0.84,0.04,-0.06,0.90,14855533
-1.43,-0.84,0.04,-0.04,0.89,14859493
-1.43,-0.85,0.04,-0.02,0.89,14863443
-1.42,-0.86,0.03,0.00,0.89,14867393
-1.41,-0.86,0.02,0.02,0.89,14871340
-1.39,-0.86,0.02,0.03,0.89,14875296
-1.37,-0.86,0.01,0.04,0.89,14879244
-1.34,-0.85,0.00,0.06,0.89,14883184
-1.31,-0.85,0.00,0.07,0.89,14887136
-1.29,-0.84,0.00,0.06,0.89,14891078
-1.26,-0.83,-0.00,0.05,0.89,14895031
-1.25,-0.82,-0.01,0.04,0.89,14898971
-1.23,-0.81,-0.01,0.03,0.89,14902920
-1.22,-0.80,-0.02,0.02,0.89,14906868
-1.21,-0.79,-0.02,-0.01,0.89,14910815
-1.22,-0.78,-0.02,-0.03,0.89,14914769
-1.23,-0.77,-0.01,-0.05,0.89,14918717
-1.24,-0.77,-0.00,-0.06,0.89,14922666
-1.26,-0.77,0.00,-0.07,0.89,14926621
-1.29,-0.77,0.01,-0.09,0.89,14930560
-1.32,-0.77,0.01,-0.11,0.89,14934525
-1.35,-0.77,0.01,-0.11,0.89,14938475
-1.37,-0.77,0.01,-0.09,0.89,14942420
-1.39,-0.77,0.01,-0.08,0.89,14946383
-1.41,-0.78,0.02,-0.07,0.89,14950328
-1.42,-0.79,0.03,-0.07,0.89,14954288
-1.43,-0.79,0.03,-0.05,0.90,14958225
-1.43,-0.80,0.04,-0.03,0.89,14962175
-1.42,-0.81,0.03,0.00,0.90,14965900
-1.41,-0.82,0.03,0.02,0.89,14969847
-1.39,-0.82,0.02,0.02,0.89,14973795
-1.37,-0.82,0.02,0.04,0.89,14977740
-1.35,-0.82,0.01,0.06,0.89,14981690
-1.31,-0.82,0.01,0.07,0.89,14985636
-1.28,-0.82,0.01,0.07,0.89,14989580
-1.26,-0.82,0.02,0.06,0.89,14993538
-1.23,-0.82,0.02,0.04,0.89,14997481
-1.21,-0.82,0.01,0.04,0.89,15001435
-1.20,-0.81,0.00,0.02,0.89,15005375
-1.20,-0.80,-0.01,-0.00,0.89,15009318
-1.20,-0.80,-0.01,-0.04,0.89,15013266
-1.22,-0.79,-0.00,-0.06,0.89,15017213
-1.24,-0.79,0.00,-0.07,0.89,15021165
-1.25,-0.79,0.01,-0.07,0.89,15025110
-1.28,-0.79,0.02,-0.09,0.90,15029055
-1.31,-0.80,0.03,-0.12,0.90,15033013
-1.35,-0.80,0.03,-0.13,0.90,15036947
-1.38,-0.81,0.03,-0.11,0.90,15040906
-1.40,-0.81,0.03,-0.09,0.89,15044848
-1.42,-0.82,0.03,-0.08,0.90,15048789
-1.44,-0.83,0.03,-0.07,0.89,15052742
-1.45,-0.84,0.04,-0.06,0.90,15056681
-1.45,-0.85,0.04,-0.03,0.89,15060634
-1.45,-0.86,0.04,-0.00,0.89,15064573
-1.43,-0.86,0.03,0.02,0.89,15068522
-1.41,-0.86,0.02,0.03,0.89,15072472
-1.39,-0.86,0.01,0.04,0.89,15076421
-1.36,-0.85,-0.00,0.06,0.89,15080371
-1.33,-0.84,-0.00,0.08,0.89,15084319
-1.29,-0.84,0.00,0.08,0.89,15088276
-1.27,-0.83,0.01,0.06,0.89,15092220
-1.24,-0.83,0.01,0.05,0.89,15096171
-1.22,-0.83,0.00,0.04,0.89,15100125
-1.21,-0.82,-0.01,0.03,0.89,15104066
-1.21,-0.81,-0.02,-0.00,0.89,15108021
-1.21,-0.79,-0.02,-0.04,0.89,15111970
-1.23,-0.78,-0.02,-0.06,0.89,15115915
-1.25,-0.78,-0.01,-0.07,0.89,15119872
-1.27,-0.77,-0.00,-0.07,0.89,15123818
-1.29,-0.77,0.01,-0.09,0.89,15127772
-1.32,-0.77,0.02,-0.12,0.90,15131720
-1.36,-0.78,0.02,-0.13,0.90,15135669
-1.39,-0.78,0.02,-0.12,0.90,15139628
-1.42,-0.78,0.01,-0.09,0.89,15143578
-1.44,-0.78,0.01,-0.08,0.90,15147534
-1.45,-0.79,0.02,-0.07,0.89,15151477
-1.46,-0.79,0.02,-0.05,0.90,15155431
-1.46,-0.80,0.03,-0.02,0.89,15159392
-1.45,-0.81,0.03,0.01,0.89,15163339
-1.43,-0.81,0.02,0.03,0.89,15167296
-1.41,-0.81,0.02,0.03,0.89,15171239
-1.38,-0.81,0.02,0.05,0.89,15175197
-1.35,-0.81,0.01,0.08,0.89,15179146
-1.31,-0.81,0.01,0.09,0.89,15183086
-1.28,-0.81,0.01,0.08,0.89,15187050
-1.25,-0.81,0.02,0.06,0.89,15190989
-1.23,-0.81,0.02,0.05,0.89,15194946
-1.21,-0.81,0.01,0.04,0.89,15198893
-1.20,-0.80,-0.00,0.01,0.89,15202833
-1.20,-0.80,-0.01,-0.02,0.89,15206777
-1.21,-0.79,-0.01,-0.06,0.89,15210719
-1.23,-0.78,-0.00,-0.08,0.89,15214672
-1.25,-0.78,0.00,-0.08,0.89,15218615
-1.28,-0.78,0.01,-0.09,0.89,15222561
-1.31,-0.79,0.02,-0.11,0.89,15226522
-1.35,-0.79,0.03,-0.14,0.90,15230468
-1.39,-0.80,0.03,-0.14,0.90,15234422
-1.42,-0.81,0.03,-0.12,0.90,15238366
-1.44,-0.81,0.03,-0.09,0.90,15242314
-1.46,-0.82,0.03,-0.08,0.90,15246265
-1.47,-0.83,0.03,-0.06,0.90,15250209
-1.47,-0.83,0.03,-0.03,0.90,15254161
-1.46,-0.84,0.03,0.00,0.89,15258100
-1.45,-0.85,0.03,0.03,0.89,15262053
-1.43,-0.85,0.03,0.04,0.89,15266003
-1.40,-0.85,0.02,0.05,0.89,15269953
-1.37,-0.85,0.01,0.08,0.89,15273907
-1.33,-0.85,0.01,0.10,0.89,15277853
-1.29,-0.84,0.00,0.10,0.89,15281810
-1.25,-0.84,0.00,0.08,0.89,15285754
-1.23,-0.83,0.00,0.05,0.89,15289702
-1.21,-0.82,-0.00,0.04,0.89,15293643
-1.20,-0.81,-0.01,0.02,0.89,15297581
-1.19,-0.81,-0.01,-0.01,0.89,15301537
-1.21,-0.80,-0.01,-0.05,0.89,15305475
-1.22,-0.79,-0.01,-0.07,0.89,15309432
-1.25,-0.78,-0.00,-0.08,0.89,15313387
-1.27,-0.78,-0.00,-0.09,0.89,15317333
-1.30,-0.78,0.01,-0.11,0.90,15321286
-1.34,-0.78,0.02,-0.14,0.90,15325230
-1.38,-0.78,0.02,-0.14,0.90,15329179
-1.41,-0.79,0.02,-0.12,0.90,15333139
-1.44,-0.79,0.02,-0.10,0.89,15337081
-1.46,-0.79,0.02,-0.08,0.90,15341036
-1.48,-0.80,0.02,-0.07,0.89,15344977
-1.48,-0.80,0.02,-0.04,0.90,15348921
-1.47,-0.80,0.01,-0.00,0.89,15352865
-1.45,-0.80,0.01,0.03,0.89,15356807
-1.43,-0.80,0.01,0.05,0.89,15360755
-1.40,-0.80,0.01,0.05,0.89,15364695
-1.37,-0.80,0.01,0.07,0.88,15368650
-1.33,-0.80,0.01,0.10,0.89,15372585
-1.29,-0.80,0.01,0.11,0.88,15376536
-1.25,-0.80,0.02,0.09,0.89,15380480
-1.22,-0.80,0.02,0.07,0.89,15384418
-1.20,-0.80,0.01,0.05,0.89,15388371
-1.18,-0.80,0.01,0.04,0.89,15392315
-1.17,-0.79,0.00,0.00,0.89,15396258
-1.18,-0.79,-0.00,-0.04,0.90,15400196
-1.20,-0.78,0.00,-0.08,0.89,15404145
-1.23,-0.78,0.01,-0.09,0.90,15408097
-1.26,-0.78,0.01,-0.10,0.89,15412047
-1.29,-0.78,0.01,-0.12,0.90,15416004
-1.33,-0.79,0.02,-0.14,0.90,15419955
-1.37,-0.79,0.02,-0.15,0.90,15423911
-1.41,-0.80,0.03,-0.13,0.89,15427873
-1.43,-0.81,0.03,-0.11,0.90,15431813
-1.46,-0.81,0.03,-0.09,0.89,15435775
-1.47,-0.82,0.03,-0.07,0.90,15439718
-1.48,-0.83,0.03,-0.04,0.90,15443659
-1.47,-0.84,0.03,-0.00,0.89,15447610
-1.45,-0.84,0.02,0.03,0.88,15451554
-1.43,-0.84,0.02,0.05,0.89,15455509
-1.40,-0.84,0.02,0.06,0.89,15459449
-1.36,-0.84,0.01,0.08,0.89,15463414
-1.32,-0.84,0.01,0.10,0.88,15467359
-1.28,-0.84,0.01,0.10,0.89,15471312
-1.24,-0.83,0.01,0.09,0.89,15475271
-1.21,-0.83,0.01,0.07,0.89,15479218
-1.19,-0.82,0.00,0.05,0.89,15483172
-1.17,-0.82,-0.01,0.03,0.89,15487115
-1.17,-0.81,-0.01,-0.00,0.89,15491061
-1.18,-0.80,-0.01,-0.04,0.89,15495014
-1.20,-0.80,-0.00,-0.08,0.90,15498948
-1.23,-0.80,0.00,-0.09,0.89,15502893
-1.26,-0.79,0.00,-0.11,0.89,15506840
-1.30,-0.79,0.01,-0.13,0.90,15510785
-1.34,-0.80,0.02,-0.14,0.90,15514738
-1.38,-0.80,0.02,-0.14,0.90,15518681
-1.41,-0.81,0.03,-0.13,0.90,15522632
-1.44,-0.81,0.03,-0.11,0.89,15526579
-1.47,-0.82,0.03,-0.10,0.90,15530529
-1.48,-0.82,0.02,-0.07,0.89,15534487
-1.48,-0.82,0.01,-0.03,0.90,15538426
-1.47,-0.82,0.01,0.01,0.89,15542384
-1.45,-0.82,0.00,0.04,0.89,15546329
-1.42,-0.81,0.01,0.06,0.89,15550289
-1.39,-0.81,0.00,0.07,0.89,15554228
-1.35,-0.81,0.01,0.08,0.89,15558179
-1.31,-0.81,0.01,0.10,0.89,15562136
-1.27,-0.81,0.01,0.10,0.89,15566080
-1.24,-0.81,0.01,0.09,0.89,15570039
-1.21,-0.80,0.01,0.07,0.89,15573982
-1.18,-0.80,0.00,0.06,0.89,15577923
-1.16,-0.80,-0.00,0.04,0.89,15581861
-1.16,-0.79,0.00,-0.00,0.89,15585796
-1.17,-0.79,0.00,-0.05,0.89,15589746
-1.19,-0.79,0.01,-0.08,0.89,15593691
-1.22,-0.79,0.01,-0.10,0.89,15597642
-1.25,-0.79,0.01,-0.12,0.89,15601596
-1.29,-0.79,0.02,-0.14,0.90,15605550
-1.34,-0.80,0.02,-0.15,0.90,15609502
-1.38,-0.80,0.02,-0.14,0.90,15613437
-1.41,-0.81,0.03,-0.13,0.90,15617400
-1.45,-0.81,0.03,-0.12,0.90,15621349
-1.47,-0.82,0.03,-0.10,0.90,15625301
-1.48,-0.83,0.02,-0.06,0.90,15629255
-1.48,-0.83,0.02,-0.02,0.89,15633203
-1.46,-0.83,0.01,0.03,0.88,15637163
-1.43,-0.83,0.02,0.06,0.89,15641113
-1.40,-0.83,0.01,0.07,0.89,15645058
-1.37,-0.83,0.01,0.08,0.89,15649015
-1.33,-0.83,0.01,0.09,0.89,15652966
-1.29,-0.83,0.02,0.10,0.89,15656923
-1.25,-0.83,0.02,0.10,0.89,15660866
-1.21,-0.83,0.01,0.09,0.89,15664826
-1.18,-0.82,0.00,0.08,0.89,15668766
-1.15,-0.81,-0.01,0.06,0.88,15672717
-1.14,-0.81,-0.01,0.02,0.89,15676669
-1.15,-0.80,0.00,-0.03,0.89,15680607
-1.16,-0.80,0.01,-0.06,0.89,15684560
-1.19,-0.80,0.01,-0.09,0.89,15688507
-1.23,-0.80,0.01,-0.12,0.89,15692459
-1.27,-0.81,0.02,-0.14,0.90,15696419
-1.31,-0.81,0.02,-0.15,0.90,15700365
-1.35,-0.81,0.02,-0.15,0.90,15704325
-1.39,-0.82,0.02,-0.13,0.90,15708273
-1.43,-0.82,0.02,-0.13,0.90,15712228
-1.46,-0.83,0.03,-0.11,0.90,15716179
-1.48,-0.83,0.02,-0.08,0.90,15720121
-1.48,-0.83,0.01,-0.03,0.90,15724071
-1.46,-0.83,0.01,0.02,0.89,15728016
-1.44,-0.83,0.01,0.05,0.88,15731971
-1.41,-0.82,0.00,0.07,0.88,15735916
-1.37,-0.82,-0.01,0.08,0.89,15739870
-1.34,-0.81,-0.01,0.08,0.89,15743825
-1.30,-0.81,0.00,0.09,0.89,15747767
-1.26,-0.81,0.01,0.10,0.89,15751724
-1.22,-0.81,0.02,0.10,0.89,15755667
-1.18,-0.81,0.01,0.09,0.89,15759619
-1.15,-0.80,0.00,0.08,0.88,15763573
-1.13,-0.80,0.00,0.04,0.89,15767285
-1.13,-0.80,0.00,-0.01,0.89,15771238
-1.14,-0.79,0.01,-0.05,0.89,15775183
-1.17,-0.79,0.01,-0.09,0.89,15779133
-1.21,-0.80,0.01,-0.13,0.90,15783082
-1.25,-0.80,0.02,-0.15,0.90,15787024
-1.29,-0.81,0.03,-0.15,0.90,15790979
-1.34,-0.81,0.03,-0.15,0.90,15794921
-1.38,-0.82,0.02,-0.14,0.90,15798865
-1.41,-0.82,0.03,-0.14,0.90,15802804
-1.45,-0.83,0.02,-0.12,0.90,15806757
-1.47,-0.83,0.02,-0.09,0.90,15810711
-1.47,-0.83,0.01,-0.04,0.90,15814650
-1.46,-0.83,0.01,0.01,0.88,15818606
-1.43,-0.83,0.01,0.05,0.88,15822552
-1.40,-0.83,0.01,0.06,0.89,15826497
-1.37,-0.83,0.01,0.08,0.89,15830449
-1.33,-0.82,0.00,0.09,0.89,15834392
-1.29,-0.82,0.01,0.10,0.89,15838352
-1.25,-0.82,0.01,0.10,0.89,15842296
-1.20,-0.82,0.02,0.11,0.89,15846253
-1.16,-0.82,0.01,0.10,0.89,15850199
-1.13,-0.81,0.00,0.08,0.89,15854148
-1.11,-0.81,0.00,0.04,0.89,15858094
-1.11,-0.81,0.01,-0.01,0.89,15862042
-1.12,-0.81,0.01,-0.06,0.90,15865995
-1.15,-0.81,0.01,-0.10,0.90,15869937
-1.19,-0.81,0.02,-0.13,0.90,15873883
-1.24,-0.81,0.03,-0.15,0.90,15877843
-1.28,-0.82,0.04,-0.15,0.90,15881787
-1.33,-0.83,0.03,-0.15,0.90,15885752
-1.36,-0.83,0.03,-0.14,0.90,15889694
-1.40,-0.84,0.03,-0.14,0.90,15893646
-1.44,-0.84,0.02,-0.13,0.90,15897604
-1.46,-0.85,0.02,-0.09,0.90,15901547
-1.46,-0.84,0.01,-0.04,0.90,15905501
-1.45,-0.84,0.00,0.02,0.88,15909444
-1.42,-0.84,0.01,0.05,0.88,15913393
-1.39,-0.83,0.01,0.07,0.88,15917342
-1.35,-0.83,-0.00,0.08,0.89,15921277
-1.32,-0.82,-0.00,0.09,0.89,15925233
-1.28,-0.82,0.00,0.10,0.89,15929172
-1.23,-0.81,0.01,0.11,0.89,15933133
-1.19,-0.81,0.01,0.11,0.89,15937085
-1.14,-0.81,0.01,0.11,0.89,15941046
-1.11,-0.81,0.00,0.08,0.88,15944994
-1.10,-0.80,0.00,0.03,0.89,15948923
-1.10,-0.80,0.01,-0.02,0.89,15952878
-1.12,-0.80,0.01,-0.07,0.90,15956822
-1.15,-0.80,0.01,-0.11,0.89,15960775
-1.19,-0.81,0.02,-0.14,0.90,15964724
-1.24,-0.81,0.03,-0.15,0.90,15968669
-1.28,-0.82,0.03,-0.15,0.90,15972627
-1.32,-0.82,0.03,-0.15,0.90,15976573
-1.36,-0.83,0.02,-0.14,0.90,15980527
-1.40,-0.83,0.02,-0.14,0.90,15984475
-1.43,-0.83,0.02,-0.12,0.90,15988436
-1.45,-0.83,0.01,-0.08,0.90,15992394
-1.45,-0.83,-0.00,-0.02,0.89,15996345
-1.43,-0.82,0.00,0.03,0.88,16000298
-1.40,-0.82,0.01,0.06,0.88,16004241
-1.37,-0.82,0.00,0.08,0.88,16008184
-1.33,-0.81,-0.00,0.09,0.89,16012142
-1.29,-0.81,-0.00,0.10,0.89,16016087
-1.24,-0.80,0.00,0.11,0.89,16020040
-1.20,-0.80,0.02,0.12,0.89,16023982
-1.15,-0.80,0.02,0.12,0.89,16027933
-1.11,-0.80,0.01,0.10,0.89,16031887
-1.08,-0.80,0.01,0.07,0.88,16035830
-1.07,-0.80,0.01,0.02,0.90,16039776
-1.08,-0.80,0.02,-0.04,0.89,16043713
-1.11,-0.80,0.02,-0.09,0.90,16047665
-1.15,-0.80,0.02,-0.14,0.90,16051605
-1.20,-0.81,0.02,-0.16,0.91,16055560
-1.25,-0.81,0.03,-0.16,0.90,16059513
-1.29,-0.82,0.03,-0.14,0.90,16063461
-1.33,-0.83,0.03,-0.14,0.89,16067428
-1.37,-0.83,0.03,-0.15,0.90,16071373
-1.41,-0.84,0.03,-0.14,0.90,16075328
-1.44,-0.84,0.02,-0.11,0.90,16079284
-1.45,-0.84,0.01,-0.06,0.90,16083225
-1.44,-0.83,-0.00,-0.00,0.89,16087170
-1.42,-0.83,0.00,0.04,0.89,16091108
-1.38,-0.82,-0.00,0.07,0.88,16095051
-1.35,-0.82,-0.01,0.08,0.89,16099007
-1.31,-0.81,-0.01,0.09,0.89,16102955
-1.27,-0.80,-0.01,0.10,0.89,16106908
-1.22,-0.80,0.01,0.11,0.89,16110859
-1.18,-0.80,0.02,0.12,0.89,16114808
-1.13,-0.80,0.01,0.12,0.89,16118758
-1.09,-0.79,0.01,0.09,0.89,16122699
-1.07,-0.79,0.00,0.04,0.89,16126646
-1.07,-0.79,0.01,-0.01,0.89,16130585
-1.09,-0.79,0.01,-0.07,0.89,16134535
-1.13,-0.79,0.01,-0.12,0.89,16138485
-1.17,-0.79,0.02,-0.15,0.90,16142437
-1.22,-0.80,0.03,-0.16,0.90,16146387
-1.26,-0.81,0.03,-0.14,0.90,16150335
-1.30,-0.81,0.03,-0.14,0.90,16154289
-1.35,-0.81,0.03,-0.14,0.90,16158234
-1.39,-0.82,0.02,-0.15,0.90,16162182
-1.42,-0.82,0.02,-0.13,0.90,16166147
-1.44,-0.82,0.00,-0.08,0.90,16170087
-1.44,-0.81,-0.01,-0.02,0.89,16174044
-1.42,-0.81,-0.01,0.03,0.88,16177991
-1.39,-0.80,-0.00,0.06,0.89,16181935
-1.36,-0.80,-0.01,0.08,0.88,16185884
-1.32,-0.79,-0.01,0.09,0.88,16189827
-1.28,-0.78,-0.01,0.10,0.88,16193781
-1.23,-0.78,0.00,0.11,0.89,16197727
-1.18,-0.78,0.02,0.12,0.89,16201685
-1.13,-0.78,0.02,0.13,0.89,16205633
-1.09,-0.78,0.02,0.11,0.88,16209588
-1.07,-0.78,0.01,0.07,0.89,16213537
-1.06,-0.78,0.01,0.01,0.89,16217476
-1.07,-0.78,0.02,-0.05,0.89,16221427
-1.10,-0.78,0.02,-0.11,0.89,16225374
-1.15,-0.79,0.02,-0.15,0.90,16229328
-1.20,-0.80,0.03,-0.16,0.91,16233279
-1.24,-0.81,0.04,-0.15,0.90,16237227
-1.28,-0.81,0.04,-0.14,0.90,16241187
-1.32,-0.82,0.03,-0.14,0.89,16245136
-1.37,-0.82,0.03,-0.16,0.90,16249090
-1.41,-0.83,0.02,-0.15,0.89,16253052
-1.44,-0.83,0.01,-0.11,0.90,16257002
-1.44,-0.83,0.00,-0.04,0.89,16260951
-1.43,-0.82,0.00,0.02,0.88,16264889
-1.40,-0.82,0.00,0.06,0.88,16268834
-1.36,-0.82,-0.01,0.08,0.88,16272788
-1.32,-0.81,-0.01,0.09,0.88,16276733
-1.28,-0.80,-0.01,0.10,0.89,16280685
-1.24,-0.79,-0.00,0.11,0.89,16284626
-1.19,-0.79,0.02,0.12,0.89,16288588
-1.14,-0.79,0.03,0.13,0.89,16292541
-1.09,-0.79,0.02,0.12,0.89,16296495
-1.06,-0.79,0.01,0.08,0.89,16300450
-1.05,-0.79,0.01,0.03,0.89,16304391
-1.05,-0.79,0.01,-0.03,0.90,16308343
-1.08,-0.79,0.01,-0.09,0.89,16312278
-1.13,-0.79,0.01,-0.14,0.90,16316235
-1.18,-0.80,0.03,-0.16,0.91,16320187
-1.22,-0.81,0.04,-0.15,0.91,16324139
-1.26,-0.82,0.04,-0.14,0.90,16328095
-1.30,-0.82,0.03,-0.15,0.89,16332041
-1.35,-0.82,0.02,-0.15,0.90,16335990
-1.39,-0.82,0.01,-0.15,0.90,16339946
-1.42,-0.82,0.00,-0.12,0.90,16343884
-1.43,-0.82,-0.01,-0.06,0.90,16347836
-1.42,-0.81,-0.01,0.00,0.88,16351779
-1.39,-0.80,-0.00,0.05,0.88,16355725
-1.36,-0.80,-0.01,0.08,0.88,16359668
-1.32,-0.79,-0.02,0.09,0.89,16363613
-1.28,-0.78,-0.02,0.09,0.89,16367564
-1.24,-0.77,-0.01,0.11,0.89,16371513
-1.19,-0.77,0.01,0.13,0.89,16375472
-1.13,-0.77,0.02,0.14,0.89,16379418
-1.09,-0.77,0.02,0.13,0.89,16383371
-1.05,-0.77,0.02,0.09,0.89,16387323
-1.03,-0.77,0.02,0.03,0.89,16391261
-1.04,-0.77,0.02,-0.03,0.89,16395222
-1.07,-0.78,0.01,-0.09,0.90,16399155
-1.11,-0.78,0.01,-0.14,0.90,16403104
-1.16,-0.78,0.03,-0.16,0.91,16407068
-1.21,-0.79,0.04,-0.16,0.90,16411011
-1.25,-0.80,0.04,-0.14,0.90,16414961
-1.29,-0.81,0.03,-0.14,0.89,16418911
-1.33,-0.81,0.03,-0.16,0.90,16422864
-1.38,-0.82,0.02,-0.16,0.89,16426814
-1.41,-0.82,0.01,-0.12,0.90,16430760
-1.42,-0.81,-0.00,-0.06,0.90,16434709
-1.41,-0.81,-0.01,-0.00,0.88,16438650
-1.39,-0.80,-0.01,0.05,0.88,16442592
-1.35,-0.79,-0.01,0.08,0.88,16446540
-1.31,-0.78,-0.02,0.10,0.88,16450493
-1.27,-0.77,-0.01,0.10,0.89,16454458
-1.23,-0.77,-0.00,0.11,0.89,16458408
-1.18,-0.77,0.01,0.13,0.89,16462370
-1.13,-0.77,0.03,0.14,0.89,16466323
-1.08,-0.77,0.02,0.13,0.89,16470278
-1.04,-0.78,0.02,0.09,0.89,16474237
-1.03,-0.78,0.02,0.03,0.89,16478178
-1.04,-0.78,0.02,-0.03,0.90,16482127
-1.07,-0.78,0.02,-0.10,0.89,16486069
-1.11,-0.78,0.02,-0.14,0.90,16490022
-1.16,-0.79,0.03,-0.16,0.90,16493973
-1.20,-0.80,0.04,-0.15,0.91,16497914
-1.24,-0.81,0.04,-0.14,0.90,16501866
-1.28,-0.82,0.03,-0.15,0.90,16505814
-1.33,-0.82,0.03,-0.16,0.90,16509762
-1.37,-0.82,0.02,-0.16,0.90,16513712
-1.41,-0.82,0.01,-0.12,0.90,16517669
-1.42,-0.82,-0.01,-0.06,0.90,16521616
-1.41,-0.81,-0.01,0.00,0.88,16525553
-1.38,-0.80,-0.01,0.05,0.88,16529498
-1.35,-0.79,-0.01,0.08,0.88,16533448
-1.30,-0.78,-0.02,0.10,0.89,16537388
-1.26,-0.78,-0.01,0.10,0.88,16541340
-1.21,-0.77,-0.00,0.12,0.89,16545287
-1.16,-0.77,0.01,0.13,0.89,16549245
-1.11,-0.77,0.02,0.14,0.88,16553194
-1.06,-0.77,0.02,0.13,0.89,16557143
-1.03,-0.77,0.02,0.09,0.89,16561098
-1.01,-0.78,0.02,0.03,0.89,16565040
-1.02,-0.78,0.01,-0.04,0.89,16568997
-1.06,-0.78,0.01,-0.11,0.90,16572935
-1.11,-0.78,0.01,-0.15,0.90,16576892
-1.16,-0.78,0.03,-0.17,0.90,16580852
-1.20,-0.79,0.04,-0.15,0.90,16584790
-1.24,-0.80,0.04,-0.13,0.90,16588741
-1.28,-0.81,0.03,-0.15,0.89,16592685
-1.33,-0.81,0.02,-0.16,0.90,16596635
-1.37,-0.81,0.01,-0.16,0.89,16600589
-1.40,-0.81,0.01,-0.12,0.90,16604534
-1.41,-0.80,-0.01,-0.05,0.89,16608486
-1.40,-0.79,-0.01,0.01,0.88,16612425
-1.37,-0.79,-0.01,0.06,0.88,16616372
-1.33,-0.78,-0.02,0.09,0.88,16620322
-1.29,-0.77,-0.02,0.10,0.88,16624263
-1.25,-0.76,-0.02,0.11,0.89,16628224
-1.20,-0.75,0.00,0.13,0.89,16632165
-1.14,-0.75,0.02,0.14,0.89,16636121
-1.09,-0.76,0.03,0.14,0.89,16640069
-1.04,-0.76,0.03,0.12,0.89,16644024
-1.01,-0.77,0.03,0.08,0.89,16647970
-1.01,-0.77,0.02,0.01,0.89,16651907
-1.03,-0.77,0.02,-0.06,0.90,16655855
-1.07,-0.77,0.01,-0.13,0.89,16659801
-1.11,-0.78,0.02,-0.16,0.90,16663746
-1.16,-0.79,0.03,-0.16,0.90,16667701
-1.20,-0.80,0.04,-0.14,0.90,16671642
-1.24,-0.81,0.04,-0.14,0.90,16675600
-1.29,-0.81,0.04,-0.15,0.90,16679542
-1.33,-0.82,0.03,-0.17,0.90,16683494
-1.38,-0.82,0.02,-0.16,0.90,16687444
-1.40,-0.81,0.00,-0.11,0.90,16691382
-1.41,-0.81,-0.01,-0.04,0.89,16695339
-1.39,-0.80,-0.02,0.02,0.88,16699275
-1.36,-0.79,-0.02,0.06,0.88,16703221
-1.32,-0.78,-0.02,0.09,0.88,16707167
-1.28,-0.77,-0.02,0.10,0.88,16711113
-1.24,-0.76,-0.01,0.11,0.89,16715070
-1.18,-0.76,0.02,0.13,0.89,16719020
-1.13,-0.77,0.03,0.15,0.89,16722979
-1.07,-0.77,0.04,0.15,0.88,16726929
-1.03,-0.78,0.03,0.12,0.89,16730877
-1.01,-0.78,0.02,0.06,0.89,16734828
-1.01,-0.78,0.02,-0.01,0.89,16738774
-1.03,-0.78,0.01,-0.09,0.89,16742721
-1.08,-0.78,0.01,-0.14,0.90,16746661
-1.13,-0.79,0.02,-0.16,0.91,16750611
-1.17,-0.80,0.04,-0.15,0.90,16754563
-1.21,-0.81,0.04,-0.13,0.90,16758503
-1.25,-0.82,0.04,-0.14,0.90,16762464
-1.29,-0.82,0.03,-0.16,0.90,16766416
-1.34,-0.82,0.02,-0.17,0.90,16770365
-1.38,-0.82,0.01,-0.15,0.90,16774322
-1.40,-0.81,-0.01,-0.09,0.90,16778251
-1.40,-0.80,-0.02,-0.03,0.89,16782205
-1.38,-0.79,-0.02,0.03,0.88,16786144
-1.35,-0.78,-0.03,0.07,0.88,16790092
-1.31,-0.77,-0.03,0.10,0.88,16794046
-1.26,-0.76,-0.02,0.11,0.88,16797991
-1.21,-0.75,-0.00,0.13,0.88,16801951
-1.16,-0.76,0.02,0.15,0.89,16805895
-1.10,-0.77,0.04,0.15,0.88,16809848
-1.05,-0.77,0.04,0.14,0.89,16813794
-1.01,-0.78,0.03,0.10,0.89,16817742
-0.99,-0.78,0.02,0.03,0.89,16821692
-1.00,-0.78,0.02,-0.04,0.89,16825630
-1.04,-0.78,0.01,-0.11,0.89,16829588
-1.08,-0.79,0.01,-0.15,0.90,16833531
-1.13,-0.79,0.03,-0.16,0.90,16837478
-1.17,-0.81,0.04,-0.14,0.90,16841440
-1.21,-0.82,0.04,-0.12,0.90,16845387
-1.25,-0.82,0.03,-0.15,0.89,16849347
-1.30,-0.82,0.02,-0.16,0.90,16853284
-1.34,-0.82,0.01,-0.16,0.90,16857237
-1.38,-0.82,-0.00,-0.13,0.90,16861185
-1.39,-0.81,-0.02,-0.07,0.90,16865131
-1.39,-0.79,-0.02,-0.01,0.89,16869093
-1.36,-0.79,-0.02,0.04,0.89,16873040
-1.32,-0.77,-0.02,0.09,0.88,16876990
-1.28,-0.76,-0.02,0.11,0.88,16880948
-1.23,-0.76,-0.01,0.12,0.88,16884898
-1.17,-0.76,0.01,0.14,0.89,16888860
-1.12,-0.76,0.03,0.16,0.89,16892808
-1.06,-0.77,0.04,0.15,0.89,16896760
-1.01,-0.78,0.04,0.12,0.89,16900699
-0.99,-0.78,0.03,0.07,0.89,16904640
-0.98,-0.78,0.03,-0.00,0.89,16908594
-1.01,-0.79,0.02,-0.08,0.90,16912535
-1.05,-0.79,0.02,-0.14,0.90,16916488
-1.10,-0.79,0.03,-0.17,0.91,16920437
-1.15,-0.81,0.04,-0.15,0.91,16924393
-1.18,-0.82,0.05,-0.12,0.90,16928345
-1.22,-0.83,0.04,-0.13,0.90,16932293
-1.26,-0.83,0.04,-0.15,0.90,16936253
-1.31,-0.84,0.03,-0.17,0.90,16940197
-1.35,-0.84,0.01,-0.16,0.90,16944148
-1.38,-0.83,-0.00,-0.11,0.90,16948100
-1.39,-0.82,-0.02,-0.05,0.89,16952045
-1.37,-0.81,-0.02,0.01,0.88,16956003
-1.34,-0.80,-0.02,0.06,0.88,16959941
-1.30,-0.78,-0.03,0.10,0.88,16963889
-1.26,-0.77,-0.02,0.11,0.88,16967846
-1.21,-0.77,-0.01,0.13,0.89,16971794
-1.15,-0.77,0.02,0.15,0.89,16975755
-1.09,-0.77,0.03,0.16,0.89,16979702
-1.04,-0.78,0.04,0.14,0.89,16983652
-1.00,-0.78,0.03,0.10,0.89,16987585
-0.98,-0.78,0.02,0.05,0.89,16991534
-0.99,-0.78,0.01,-0.03,0.89,16995496
-1.02,-0.78,0.01,-0.10,0.89,16999437
-1.07,-0.79,0.01,-0.16,0.90,17003389
-1.12,-0.79,0.03,-0.17,0.91,17007340
-1.16,-0.81,0.04,-0.14,0.90,17011285
-1.19,-0.82,0.04,-0.11,0.90,17015238
-1.23,-0.82,0.03,-0.14,0.89,17019186
-1.28,-0.83,0.02,-0.16,0.90,17023149
-1.32,-0.82,0.01,-0.17,0.89,17027097
-1.36,-0.82,-0.01,-0.14,0.90,17031045
-1.38,-0.80,-0.02,-0.08,0.89,17035001
-1.38,-0.79,-0.02,-0.01,0.89,17038951
-1.35,-0.78,-0.02,0.04,0.88,17042909
-1.32,-0.77,-0.03,0.08,0.88,17046856
-1.28,-0.76,-0.03,0.10,0.88,17050806
-1.23,-0.75,-0.02,0.11,0.89,17054762
-1.18,-0.75,0.00,0.14,0.89,17058704
-1.12,-0.75,0.03,0.15,0.89,17062662
-1.06,-0.76,0.04,0.16,0.89,17066607
-1.01,-0.77,0.04,0.12,0.89,17070559
-0.99,-0.77,0.04,0.07,0.89,17074507
-0.99,-0.78,0.03,-0.01,0.90,17078449
-1.01,-0.78,0.02,-0.07,0.90,17082401
-1.05,-0.78,0.02,-0.14,0.90,17086344
-1.10,-0.79,0.02,-0.17,0.91,17090304
-1.15,-0.80,0.03,-0.16,0.90,17094246
-1.18,-0.81,0.04,-0.12,0.90,17098195
-1.22,-0.82,0.04,-0.13,0.90,17102149
-1.26,-0.83,0.03,-0.15,0.90,17106092
-1.31,-0.83,0.02,-0.17,0.90,17110051
-1.36,-0.82,0.01,-0.16,0.90,17113994
-1.39,-0.82,-0.01,-0.11,0.90,17117938
-1.39,-0.80,-0.02,-0.05,0.89,17121891
-1.38,-0.79,-0.02,0.02,0.88,17125838
-1.34,-0.78,-0.02,0.07,0.88,17129793
-1.30,-0.77,-0.03,0.10,0.88,17133728
-1.26,-0.76,-0.02,0.11,0.88,17137681
-1.21,-0.76,-0.00,0.13,0.88,17141636
-1.15,-0.76,0.02,0.15,0.89,17145584
-1.09,-0.77,0.04,0.16,0.89,17149536
-1.04,-0.78,0.04,0.14,0.89,17153480
-1.00,-0.78,0.04,0.09,0.89,17157428
-0.99,-0.79,0.03,0.02,0.89,17161370
-1.01,-0.79,0.02,-0.06,0.90,17165308
-1.05,-0.79,0.02,-0.12,0.90,17169261
-1.10,-0.80,0.02,-0.17,0.91,17173203
-1.15,-0.80,0.03,-0.17,0.90,17177159
-1.19,-0.82,0.04,-0.13,0.90,17181106
-1.22,-0.83,0.04,-0.12,0.90,17185055
-1.26,-0.83,0.03,-0.14,0.89,17189014
-1.31,-0.83,0.02,-0.16,0.90,17192956
-1.36,-0.83,0.01,-0.17,0.90,17196915
-1.39,-0.82,-0.01,-0.13,0.90,17200856
-1.41,-0.81,-0.02,-0.07,0.89,17204807
-1.40,-0.80,-0.02,-0.00,0.89,17208757
-1.37,-0.79,-0.02,0.05,0.88,17212706
-1.33,-0.78,-0.03,0.09,0.88,17216662
-1.29,-0.76,-0.03,0.10,0.88,17220604
-1.24,-0.75,-0.02,0.11,0.89,17224556
-1.19,-0.75,0.01,0.14,0.89,17228512
-1.13,-0.76,0.03,0.16,0.89,17232459
-1.07,-0.77,0.04,0.15,0.89,17236421
-1.03,-0.78,0.04,0.11,0.89,17240370
-1.01,-0.78,0.04,0.05,0.89,17244314
-1.02,-0.79,0.03,-0.03,0.90,17248256
-1.05,-0.79,0.02,-0.11,0.89,17252205
-1.10,-0.79,0.02,-0.16,0.90,17256161
-1.15,-0.80,0.03,-0.17,0.90,17260110
-1.20,-0.80,0.04,-0.15,0.91,17264051
-1.23,-0.82,0.04,-0.12,0.90,17268006
-1.27,-0.82,0.04,-0.14,0.90,17271952
-1.31,-0.83,0.03,-0.16,0.90,17275909
-1.36,-0.82,0.01,-0.17,0.90,17279854
-1.40,-0.82,-0.00,-0.15,0.90,17283806
-1.42,-0.81,-0.02,-0.09,0.90,17287751
-1.42,-0.79,-0.03,-0.02,0.89,17291694
-1.40,-0.78,-0.03,0.04,0.88,17295649
-1.36,-0.76,-0.03,0.08,0.88,17299590
-1.32,-0.75,-0.03,0.11,0.88,17303551
-1.27,-0.74,-0.02,0.11,0.89,17307502
-1.22,-0.74,-0.00,0.14,0.89,17311450
-1.16,-0.74,0.02,0.15,0.89,17315420
-1.11,-0.75,0.03,0.15,0.89,17319372
-1.06,-0.76,0.04,0.12,0.89,17323322
-1.03,-0.76,0.04,0.07,0.89,17327262
-1.03,-0.77,0.03,-0.01,0.90,17331208
-1.06,-0.77,0.02,-0.09,0.90,17335152
-1.11,-0.78,0.02,-0.16,0.90,17339097
-1.16,-0.78,0.03,-0.17,0.90,17343050
-1.20,-0.79,0.04,-0.16,0.90,17346990
-1.24,-0.80,0.04,-0.12,0.90,17350941
-1.27,-0.81,0.04,-0.13,0.90,17354897
-1.32,-0.82,0.03,-0.15,0.89,17358845
-1.37,-0.82,0.02,-0.17,0.90,17362798
-1.41,-0.82,0.01,-0.16,0.90,17366742
-1.44,-0.81,-0.01,-0.11,0.90,17370683
-1.44,-0.80,-0.01,-0.04,0.89,17374637
-1.42,-0.79,-0.02,0.02,0.88,17378583
-1.39,-0.78,-0.03,0.07,0.88,17382537
-1.35,-0.76,-0.04,0.10,0.88,17386486
-1.30,-0.75,-0.03,0.11,0.89,17390442
-1.25,-0.74,-0.01,0.13,0.89,17394399
-1.19,-0.74,0.02,0.15,0.89,17398349
-1.13,-0.75,0.03,0.16,0.88,17402310
-1.08,-0.76,0.05,0.14,0.89,17406259
-1.05,-0.77,0.04,0.08,0.89,17410213
-1.04,-0.78,0.03,0.01,0.90,17414149
-1.06,-0.78,0.02,-0.07,0.89,17418098
-1.11,-0.78,0.01,-0.15,0.90,17422054
-1.16,-0.78,0.02,-0.17,0.90,17426001
-1.20,-0.79,0.04,-0.15,0.90,17429954
-1.23,-0.81,0.05,-0.11,0.90,17433897
-1.27,-0.82,0.05,-0.11,0.90,17437850
-1.31,-0.83,0.03,-0.15,0.89,17441809
-1.36,-0.83,0.02,-0.17,0.90,17445753
-1.40,-0.82,0.00,-0.17,0.90,17449699
-1.44,-0.81,-0.01,-0.13,0.90,17453644
-1.45,-0.80,-0.02,-0.07,0.89,17457588
-1.44,-0.79,-0.03,0.00,0.88,17461536
-1.41,-0.77,-0.03,0.06,0.88,17465481
-1.37,-0.76,-0.03,0.10,0.88,17469437
-1.32,-0.75,-0.03,0.11,0.88,17473386
-1.27,-0.74,-0.02,0.12,0.89,17477340
-1.21,-0.74,0.01,0.15,0.89,17481293
-1.15,-0.75,0.03,0.16,0.89,17485243
-1.10,-0.76,0.04,0.15,0.89,17489200
-1.06,-0.77,0.05,0.10,0.89,17493138
-1.05,-0.77,0.04,0.03,0.89,17497093
-1.06,-0.78,0.03,-0.06,0.90,17501036
-1.11,-0.78,0.02,-0.13,0.90,17504985
-1.16,-0.79,0.03,-0.17,0.91,17508945
-1.20,-0.79,0.04,-0.16,0.91,17512885
-1.24,-0.81,0.05,-0.12,0.90,17516837
-1.27,-0.82,0.05,-0.11,0.90,17520778
-1.31,-0.82,0.03,-0.14,0.89,17524731
-1.35,-0.83,0.02,-0.16,0.90,17528687
-1.40,-0.82,0.01,-0.17,0.90,17532628
-1.44,-0.81,-0.01,-0.14,0.90,17536585
-1.46,-0.80,-0.02,-0.08,0.89,17540523
-1.45,-0.79,-0.03,-0.01,0.88,17544481
-1.43,-0.77,-0.03,0.05,0.88,17548438
-1.39,-0.76,-0.03,0.09,0.88,17552385
-1.34,-0.75,-0.03,0.12,0.88,17556346
-1.29,-0.74,-0.01,0.13,0.89,17560293
-1.23,-0.74,0.01,0.15,0.89,17564247
-1.17,-0.75,0.03,0.16,0.89,17568200
-1.11,-0.76,0.04,0.15,0.89,17572145
-1.07,-0.77,0.05,0.11,0.89,17576101
-1.05,-0.77,0.04,0.04,0.89,17580040
-1.07,-0.78,0.03,-0.05,0.90,17583989
-1.11,-0.78,0.02,-0.13,0.90,17587938
-1.16,-0.79,0.03,-0.17,0.91,17591893
-1.20,-0.80,0.04,-0.16,0.90,17595837
-1.23,-0.81,0.05,-0.11,0.90,17599785
-1.26,-0.82,0.05,-0.10,0.90,17603734
-1.30,-0.82,0.03,-0.14,0.89,17607681
-1.35,-0.83,0.02,-0.17,0.90,17611635
-1.40,-0.82,0.01,-0.18,0.90,17615585
-1.44,-0.82,-0.01,-0.15,0.89,17619533
-1.46,-0.80,-0.02,-0.10,0.89,17623478
-1.46,-0.79,-0.03,-0.03,0.88,17627424
-1.44,-0.78,-0.03,0.03,0.88,17631378
-1.40,-0.76,-0.04,0.09,0.87,17635326
-1.36,-0.74,-0.04,0.12,0.87,17639276
-1.30,-0.73,-0.02,0.13,0.88,17643225
-1.24,-0.73,0.00,0.15,0.88,17647170
-1.18,-0.74,0.03,0.16,0.89,17651123
-1.12,-0.75,0.04,0.16,0.88,17655075
-1.08,-0.76,0.05,0.12,0.89,17659018
-1.06,-0.77,0.04,0.05,0.89,17662971
-1.07,-0.77,0.03,-0.04,0.90,17666910
-1.11,-0.78,0.02,-0.12,0.90,17670863
-1.16,-0.78,0.02,-0.17,0.91,17674810
-1.21,-0.79,0.03,-0.16,0.90,17678758
-1.24,-0.80,0.04,-0.11,0.90,17682717
-1.26,-0.81,0.05,-0.10,0.89,17686659
-1.30,-0.82,0.03,-0.14,0.89,17690614
-1.35,-0.82,0.02,-0.17,0.90,17694563
-1.40,-0.81,0.00,-0.18,0.90,17698508
-1.44,-0.80,-0.02,-0.15,0.90,17702461
-1.46,-0.79,-0.03,-0.09,0.89,17706404
-1.47,-0.77,-0.03,-0.04,0.89,17710363
-1.45,-0.76,-0.04,0.02,0.88,17714304
-1.41,-0.74,-0.04,0.08,0.88,17718255
-1.37,-0.73,-0.03,0.11,0.88,17722213
-1.32,-0.72,-0.02,0.13,0.89,17726157
-1.26,-0.72,0.01,0.16,0.89,17730113
-1.19,-0.73,0.03,0.17,0.89,17734069
-1.13,-0.74,0.05,0.16,0.89,17738024
-1.09,-0.75,0.05,0.12,0.89,17741979
-1.06,-0.76,0.04,0.06,0.90,17745911
-1.07,-0.76,0.03,-0.03,0.90,17749860
-1.11,-0.77,0.02,-0.12,0.90,17753808
-1.16,-0.77,0.02,-0.17,0.91,17757765
-1.21,-0.78,0.04,-0.16,0.91,17761722
-1.24,-0.79,0.05,-0.12,0.90,17765666
-1.26,-0.81,0.05,-0.09,0.89,17769615
-1.30,-0.81,0.03,-0.13,0.89,17773563
-1.35,-0.81,0.02,-0.16,0.90,17777516
-1.40,-0.81,-0.00,-0.18,0.90,17781458
-1.44,-0.80,-0.02,-0.15,0.89,17785408
-1.46,-0.78,-0.03,-0.10,0.89,17789367
-1.46,-0.77,-0.03,-0.04,0.88,17793312
-1.45,-0.75,-0.03,0.03,0.89,17797269
-1.41,-0.74,-0.03,0.07,0.88,17801215
-1.36,-0.73,-0.03,0.11,0.87,17805157
-1.31,-0.72,-0.02,0.13,0.88,17809113
-1.25,-0.72,0.00,0.16,0.88,17813059
-1.18,-0.72,0.03,0.17,0.89,17817023
-1.12,-0.73,0.05,0.17,0.88,17820975
-1.08,-0.75,0.05,0.12,0.89,17824931
-1.05,-0.76,0.05,0.06,0.89,17828871
-1.06,-0.76,0.04,-0.03,0.90,17832806
-1.10,-0.77,0.02,-0.12,0.90,17836750
-1.15,-0.77,0.02,-0.17,0.91,17840698
-1.19,-0.78,0.03,-0.15,0.90,17844645
-1.22,-0.79,0.04,-0.11,0.90,17848601
-1.24,-0.80,0.05,-0.08,0.89,17852544
-1.28,-0.81,0.04,-0.13,0.90,17856502
-1.33,-0.81,0.02,-0.16,0.90,17860446
-1.38,-0.81,0.00,-0.19,0.90,17864396
-1.43,-0.80,-0.02,-0.16,0.90,17868346
-1.45,-0.78,-0.03,-0.11,0.89,17872293
-1.46,-0.77,-0.03,-0.05,0.89,17876255
-1.44,-0.75,-0.04,0.02,0.89,17880191
-1.41,-0.73,-0.04,0.08,0.88,17884142
-1.36,-0.72,-0.03,0.13,0.87,17888102
-1.30,-0.71,-0.02,0.14,0.89,17892042
-1.24,-0.71,0.01,0.17,0.88,17896001
-1.17,-0.72,0.03,0.18,0.89,17899947
-1.11,-0.73,0.05,0.17,0.89,17903902
-1.06,-0.74,0.05,0.13,0.89,17907849
-1.04,-0.75,0.05,0.06,0.89,17911799
-1.04,-0.76,0.04,-0.03,0.89,17915752
-1.08,-0.76,0.03,-0.12,0.90,17919688
-1.13,-0.77,0.03,-0.17,0.91,17923649
-1.18,-0.78,0.04,-0.16,0.91,17927596
-1.21,-0.79,0.04,-0.11,0.90,17931544
-1.23,-0.80,0.05,-0.08,0.89,17935495
-1.27,-0.81,0.03,-0.13,0.90,17939441
-1.31,-0.81,0.02,-0.16,0.89,17943400
-1.36,-0.80,0.00,-0.18,0.90,17947336
-1.41,-0.79,-0.02,-0.16,0.89,17951287
-1.44,-0.78,-0.03,-0.12,0.89,17955248
-1.45,-0.76,-0.03,-0.06,0.89,17959194
-1.43,-0.75,-0.04,0.01,0.88,17963153
-1.40,-0.73,-0.04,0.08,0.88,17967097
-1.35,-0.72,-0.03,0.12,0.87,17971052
-1.29,-0.71,-0.01,0.15,0.88,17975007
-1.22,-0.71,0.01,0.18,0.88,17978959
-1.15,-0.72,0.03,0.18,0.89,17982915
-1.09,-0.73,0.04,0.17,0.88,17986854
-1.04,-0.74,0.05,0.13,0.89,17990802
-1.02,-0.75,0.05,0.06,0.89,17994741
-1.03,-0.76,0.04,-0.04,0.89,17998684
-1.06,-0.76,0.03,-0.12,0.90,18002645
-1.12,-0.77,0.02,-0.17,0.91,18006592
-1.16,-0.78,0.03,-0.16,0.90,18010549
-1.19,-0.79,0.04,-0.11,0.90,18014490
-1.21,-0.80,0.05,-0.08,0.89,18018439
-1.25,-0.81,0.03,-0.13,0.89,18022408
-1.30,-0.81,0.02,-0.16,0.90,18026351
-1.35,-0.80,0.00,-0.19,0.90,18030296
-1.40,-0.79,-0.01,-0.16,0.90,18034236
-1.43,-0.78,-0.03,-0.12,0.89,18038188
-1.44,-0.76,-0.03,-0.05,0.89,18042145
-1.42,-0.74,-0.04,0.02,0.89,18046087
-1.38,-0.73,-0.05,0.08,0.88,18050045
-1.33,-0.71,-0.04,0.13,0.87,18053988
-1.28,-0.70,-0.02,0.15,0.88,18057938
-1.21,-0.70,0.01,0.17,0.89,18061888
-1.15,-0.71,0.04,0.18,0.89,18065839
-1.09,-0.73,0.05,0.17,0.88,18069795
-1.04,-0.74,0.06,0.13,0.89,18073739
-1.01,-0.75,0.05,0.06,0.89,18077690
-1.02,-0.76,0.04,-0.04,0.90,18081633
-1.06,-0.76,0.03,-0.12,0.90,18085572
-1.12,-0.77,0.02,-0.18,0.91,18089532
-1.17,-0.78,0.03,-0.17,0.90,18093474
-1.20,-0.79,0.04,-0.12,0.90,18097430
-1.22,-0.80,0.05,-0.09,0.89,18101369
-1.26,-0.81,0.03,-0.13,0.89,18105325
-1.31,-0.81,0.02,-0.16,0.90,18109282
-1.36,-0.80,0.00,-0.18,0.90,18113220
-1.40,-0.79,-0.02,-0.15,0.89,18117174
-1.42,-0.77,-0.03,-0.10,0.89,18121120
-1.43,-0.76,-0.04,-0.04,0.89,18125073
-1.41,-0.74,-0.04,0.03,0.88,18129027
-1.37,-0.72,-0.04,0.08,0.88,18132967
-1.32,-0.71,-0.03,0.12,0.87,18136929
-1.26,-0.71,-0.01,0.15,0.89,18140877
-1.20,-0.71,0.01,0.18,0.89,18144828
-1.13,-0.72,0.04,0.18,0.89,18148786
-1.07,-0.73,0.05,0.16,0.88,18152726
-1.03,-0.74,0.05,0.11,0.89,18156677
-1.02,-0.75,0.05,0.03,0.89,18160617
-1.03,-0.76,0.04,-0.04,0.89,18164559
-1.07,-0.77,0.03,-0.13,0.90,18168503
-1.12,-0.77,0.03,-0.17,0.91,18172461
-1.17,-0.78,0.04,-0.16,0.90,18176418
-1.20,-0.79,0.04,-0.11,0.90,18180365
-1.22,-0.80,0.05,-0.10,0.89,18184311
-1.26,-0.81,0.03,-0.14,0.89,18188268
-1.31,-0.81,0.02,-0.17,0.90,18192215
-1.37,-0.80,0.00,-0.19,0.90,18196158
-1.41,-0.79,-0.02,-0.15,0.89,18200109
-1.43,-0.78,-0.03,-0.10,0.89,18204066
-1.44,-0.76,-0.04,-0.04,0.89,18208018
-1.42,-0.74,-0.04,0.03,0.88,18211958
-1.38,-0.73,-0.04,0.09,0.88,18215915
-1.32,-0.71,-0.03,0.13,0.88,18219861
-1.27,-0.71,-0.01,0.15,0.89,18223822
-1.20,-0.71,0.02,0.17,0.89,18227770
-1.14,-0.72,0.04,0.18,0.89,18231722
-1.08,-0.74,0.05,0.16,0.88,18235674
-1.04,-0.75,0.05,0.11,0.89,18239620
-1.03,-0.76,0.04,0.03,0.89,18243571
-1.05,-0.76,0.03,-0.06,0.90,18247505
-1.09,-0.77,0.02,-0.13,0.90,18251451
-1.14,-0.77,0.03,-0.18,0.91,18255414
-1.19,-0.78,0.04,-0.16,0.90,18259357
-1.22,-0.79,0.04,-0.11,0.90,18263308
-1.25,-0.80,0.04,-0.10,0.89,18267246
-1.29,-0.81,0.03,-0.15,0.89,18271206
-1.34,-0.81,0.02,-0.18,0.90,18275155
-1.39,-0.80,0.00,-0.18,0.90,18279099
-1.43,-0.79,-0.01,-0.15,0.89,18283057
-1.45,-0.78,-0.02,-0.09,0.89,18286999
-1.45,-0.76,-0.03,-0.02,0.89,18290948
-1.42,-0.75,-0.04,0.05,0.88,18294907
-1.38,-0.73,-0.04,0.10,0.87,18298853
-1.33,-0.71,-0.03,0.13,0.88,18302811
-1.27,-0.71,-0.01,0.15,0.89,18306761
-1.21,-0.71,0.02,0.17,0.89,18310716
-1.14,-0.72,0.04,0.18,0.89,18314666
-1.08,-0.74,0.06,0.15,0.89,18318615
-1.05,-0.75,0.06,0.10,0.89,18322564
-1.04,-0.76,0.04,0.01,0.89,18326505
-1.07,-0.76,0.02,-0.08,0.90,18330448
-1.11,-0.76,0.01,-0.16,0.90,18334396
-1.17,-0.77,0.02,-0.18,0.90,18338351
-1.21,-0.78,0.03,-0.16,0.91,18342314
-1.24,-0.79,0.05,-0.11,0.90,18346259
-1.27,-0.80,0.05,-0.11,0.90,18350211
-1.32,-0.81,0.03,-0.15,0.89,18354161
-1.37,-0.81,0.02,-0.17,0.90,18358110
-1.42,-0.80,-0.00,-0.17,0.90,18362058
-1.45,-0.79,-0.02,-0.14,0.90,18366006
-1.47,-0.77,-0.04,-0.07,0.89,18369954
-1.46,-0.75,-0.04,-0.01,0.89,18373891
-1.43,-0.73,-0.04,0.06,0.88,18377841
-1.38,-0.72,-0.04,0.10,0.88,18381803
-1.33,-0.70,-0.03,0.13,0.88,18385747
-1.27,-0.70,-0.01,0.15,0.88,18389703
-1.21,-0.70,0.02,0.18,0.89,18393648
-1.14,-0.71,0.04,0.18,0.89,18397602
-1.09,-0.73,0.06,0.15,0.89,18401554
-1.06,-0.74,0.05,0.08,0.89,18405497
-1.05,-0.75,0.05,-0.00,0.89,18409451
-1.08,-0.76,0.03,-0.09,0.90,18413389
-1.13,-0.76,0.03,-0.16,0.91,18417346
-1.19,-0.77,0.03,-0.18,0.91,18421288
-1.23,-0.78,0.04,-0.14,0.90,18425239
-1.26,-0.79,0.05,-0.10,0.89,18429201
-1.29,-0.80,0.04,-0.13,0.90,18433140
-1.34,-0.80,0.03,-0.15,0.89,18437092
-1.39,-0.80,0.01,-0.18,0.90,18441029
-1.44,-0.79,-0.01,-0.17,0.90,18444981
-1.47,-0.78,-0.02,-0.13,0.90,18448940
-1.48,-0.76,-0.03,-0.06,0.89,18452885
-1.47,-0.75,-0.04,0.00,0.88,18456834
-1.44,-0.73,-0.04,0.07,0.88,18460776
-1.39,-0.72,-0.04,0.11,0.87,18464723
-1.34,-0.70,-0.03,0.13,0.88,18468672
-1.28,-0.70,-0.00,0.16,0.88,18472613
-1.21,-0.71,0.03,0.18,0.89,18476565
-1.15,-0.72,0.05,0.17,0.89,18480514
-1.10,-0.73,0.06,0.14,0.89,18484467
-1.07,-0.74,0.05,0.07,0.89,18488421
-1.07,-0.75,0.04,-0.02,0.89,18492370
-1.10,-0.76,0.03,-0.10,0.90,18496318
-1.15,-0.76,0.02,-0.17,0.91,18500267
-1.21,-0.77,0.04,-0.18,0.91,18504229
-1.25,-0.78,0.05,-0.14,0.91,18508184
-1.27,-0.80,0.05,-0.10,0.89,18512124
-1.31,-0.80,0.04,-0.13,0.89,18516081
-1.36,-0.81,0.02,-0.16,0.90,18520026
-1.41,-0.80,0.01,-0.18,0.90,18523985
-1.45,-0.79,-0.01,-0.16,0.89,18527937
-1.48,-0.78,-0.02,-0.12,0.90,18531880
-1.49,-0.76,-0.03,-0.05,0.89,18535837
-1.47,-0.75,-0.04,0.02,0.89,18539781
-1.44,-0.73,-0.04,0.08,0.88,18543728
-1.39,-0.72,-0.04,0.11,0.87,18547682
-1.33,-0.71,-0.02,0.13,0.88,18551626
-1.27,-0.70,-0.00,0.16,0.89,18555575
-1.21,-0.71,0.02,0.18,0.89,18559524
-1.14,-0.72,0.04,0.17,0.88,18563492
-1.10,-0.73,0.05,0.13,0.89,18567439
-1.07,-0.74,0.05,0.06,0.90,18571387
-1.08,-0.75,0.04,-0.03,0.89,18575344
-1.11,-0.76,0.03,-0.12,0.91,18579292
-1.17,-0.76,0.03,-0.17,0.91,18583248
-1.22,-0.77,0.04,-0.17,0.91,18587194
-1.25,-0.78,0.05,-0.13,0.90,18591139
-1.28,-0.80,0.05,-0.10,0.89,18595093
-1.32,-0.80,0.03,-0.14,0.89,18599039
-1.36,-0.80,0.02,-0.16,0.90,18602992
-1.42,-0.80,0.00,-0.18,0.90,18606930
-1.46,-0.79,-0.01,-0.15,0.89,18610881
-1.48,-0.78,-0.03,-0.10,0.90,18614831
-1.49,-0.76,-0.03,-0.05,0.89,18618782
-1.47,-0.74,-0.04,0.03,0.89,18622737
-1.43,-0.73,-0.04,0.09,0.88,18626680
-1.38,-0.71,-0.04,0.12,0.87,18630634
-1.32,-0.70,-0.02,0.14,0.88,18634582
-1.26,-0.70,0.00,0.17,0.88,18638520
-1.19,-0.71,0.03,0.18,0.89,18642479
-1.13,-0.72,0.05,0.16,0.88,18646427
-1.09,-0.73,0.05,0.12,0.89,18650384
-1.07,-0.74,0.05,0.05,0.89,18654324
-1.08,-0.75,0.04,-0.05,0.90,18658267
-1.12,-0.76,0.03,-0.13,0.91,18662228
-1.18,-0.76,0.03,-0.17,0.91,18666179
-1.22,-0.77,0.04,-0.16,0.91,18670142
-1.25,-0.79,0.05,-0.11,0.90,18674086
-1.28,-0.80,0.05,-0.10,0.89,18678030
-1.32,-0.80,0.03,-0.15,0.89,18681991
-1.37,-0.80,0.02,-0.18,0.90,18685933
-1.42,-0.80,-0.00,-0.19,0.90,18689888
-1.46,-0.79,-0.02,-0.15,0.89,18693839
-1.49,-0.77,-0.03,-0.09,0.89,18697784
-1.48,-0.76,-0.04,-0.02,0.88,18701740
-1.46,-0.74,-0.04,0.05,0.88,18705684
-1.42,-0.72,-0.04,0.09,0.88,18709639
-1.36,-0.71,-0.03,0.13,0.87,18713586
-1.31,-0.70,-0.02,0.15,0.89,18717534
-1.24,-0.70,0.01,0.18,0.89,18721493
-1.18,-0.71,0.04,0.18,0.89,18725444
-1.12,-0.72,0.05,0.16,0.88,18729410
-1.07,-0.74,0.06,0.11,0.89,18733351
-1.06,-0.75,0.05,0.04,0.90,18737290
-1.08,-0.75,0.03,-0.06,0.90,18741226
-1.12,-0.76,0.03,-0.14,0.91,18745171
-1.18,-0.77,0.03,-0.18,0.91,18749133
-1.22,-0.77,0.04,-0.15,0.91,18753077
-1.25,-0.79,0.05,-0.10,0.90,18757035
-1.28,-0.80,0.04,-0.11,0.89,18760978
-1.32,-0.80,0.03,-0.15,0.90,18764931
-1.37,-0.80,0.01,-0.18,0.90,18768877
-1.42,-0.79,-0.01,-0.18,0.90,18772814
-1.46,-0.78,-0.02,-0.14,0.89,18776772
-1.48,-0.76,-0.04,-0.08,0.89,18780719
-1.47,-0.74,-0.04,-0.01,0.89,18784670
-1.44,-0.73,-0.04,0.06,0.88,18788625
-1.39,-0.71,-0.04,0.11,0.87,18792575
-1.34,-0.69,-0.03,0.13,0.88,18796536
-1.28,-0.69,-0.02,0.15,0.88,18800488
-1.22,-0.69,0.01,0.18,0.89,18804444
-1.15,-0.70,0.04,0.18,0.89,18808401
-1.09,-0.71,0.05,0.16,0.89,18812341
-1.06,-0.72,0.06,0.10,0.89,18816297
-1.05,-0.73,0.04,0.02,0.89,18820239
-1.07,-0.74,0.03,-0.08,0.90,18824181
-1.12,-0.75,0.02,-0.15,0.91,18828136
-1.17,-0.75,0.03,-0.18,0.91,18832091
-1.21,-0.76,0.04,-0.14,0.91,18836046
-1.24,-0.77,0.05,-0.10,0.90,18839988
-1.28,-0.78,0.04,-0.13,0.90,18843935
-1.32,-0.79,0.03,-0.16,0.90,18847884
-1.38,-0.79,0.01,-0.19,0.90,18851831
-1.43,-0.78,-0.01,-0.18,0.89,18855788
-1.46,-0.77,-0.02,-0.13,0.89,18859744
-1.47,-0.75,-0.04,-0.06,0.89,18863695
-1.46,-0.73,-0.04,0.01,0.88,18867641
-1.42,-0.72,-0.04,0.08,0.88,18871580
-1.37,-0.70,-0.03,0.11,0.87,18875535
-1.32,-0.69,-0.02,0.14,0.88,18879487
-1.25,-0.69,0.00,0.17,0.88,18883446
-1.19,-0.70,0.03,0.18,0.89,18887396
-1.12,-0.71,0.05,0.17,0.88,18891347
-1.07,-0.72,0.06,0.14,0.89,18895304
-1.04,-0.74,0.05,0.08,0.90,18899239
-1.04,-0.75,0.04,-0.01,0.90,18903187
-1.07,-0.75,0.03,-0.10,0.91,18907127
-1.12,-0.76,0.03,-0.16,0.91,18911077
-1.17,-0.77,0.04,-0.17,0.91,18915034
-1.21,-0.78,0.04,-0.13,0.90,18918978
-1.24,-0.79,0.04,-0.11,0.89,18922939
-1.28,-0.80,0.03,-0.14,0.90,18926881
-1.33,-0.80,0.02,-0.17,0.90,18930824
-1.38,-0.79,0.00,-0.19,0.90,18934773
-1.43,-0.78,-0.01,-0.17,0.90,18938722
-1.46,-0.77,-0.03,-0.12,0.89,18942676
-1.46,-0.75,-0.04,-0.04,0.89,18946613
-1.45,-0.74,-0.04,0.03,0.88,18950557
-1.41,-0.72,-0.04,0.09,0.88,18954511
-1.36,-0.71,-0.03,0.12,0.87,18958461
-1.30,-0.70,-0.02,0.14,0.89,18962410
-1.24,-0.70,0.01,0.17,0.89,18966350
-1.18,-0.70,0.03,0.17,0.89,18970299
-1.12,-0.72,0.05,0.16,0.89,18974248
-1.07,-0.73,0.06,0.12,0.89,18978200
-1.04,-0.74,0.05,0.07,0.90,18982144
-1.05,-0.75,0.04,-0.02,0.90,18986084
-1.08,-0.76,0.03,-0.11,0.91,18990042
-1.13,-0.76,0.02,-0.17,0.91,18993989
-1.18,-0.77,0.03,-0.17,0.91,18997945
-1.22,-0.78,0.04,-0.13,0.90,19001895
-1.25,-0.79,0.04,-0.11,0.89,19005841
-1.29,-0.79,0.03,-0.15,0.89,19009800
-1.34,-0.79,0.02,-0.18,0.90,19013743
-1.40,-0.79,-0.00,-0.19,0.90,19017682
-1.44,-0.78,-0.02,-0.15,0.89,19021641
-1.46,-0.76,-0.03,-0.10,0.89,19025587
-1.46,-0.74,-0.04,-0.02,0.89,19029541
-1.43,-0.72,-0.04,0.04,0.88,19033492
-1.39,-0.70,-0.04,0.09,0.87,19037445
-1.34,-0.69,-0.03,0.12,0.88,19041404
-1.29,-0.68,-0.02,0.14,0.89,19045359
-1.22,-0.69,0.01,0.17,0.89,19049324
-1.16,-0.69,0.03,0.18,0.89,19053270
-1.10,-0.71,0.05,0.16,0.89,19057218
-1.06,-0.72,0.05,0.11,0.89,19061170
-1.05,-0.73,0.05,0.03,0.90,19065106
-1.06,-0.74,0.04,-0.06,0.90,19069055
-1.10,-0.75,0.03,-0.12,0.91,19072998
-1.15,-0.75,0.03,-0.17,0.91,19076955
-1.21,-0.76,0.04,-0.17,0.91,19080904
-1.24,-0.77,0.04,-0.13,0.90,19084850
-1.28,-0.78,0.04,-0.12,0.90,19088806
-1.32,-0.79,0.03,-0.16,0.89,19092750
-1.37,-0.79,0.02,-0.18,0.90,19096709
-1.42,-0.78,-0.00,-0.18,0.90,19100647
-1.46,-0.77,-0.02,-0.14,0.89,19104603
-1.47,-0.76,-0.03,-0.07,0.89,19108554
-1.46,-0.74,-0.03,0.00,0.89,19112492
-1.43,-0.73,-0.03,0.07,0.88,19116450
-1.39,-0.71,-0.03,0.11,0.88,19120397
-1.33,-0.70,-0.03,0.13,0.88,19124342
-1.28,-0.70,-0.01,0.15,0.89,19128295
-1.21,-0.70,0.02,0.17,0.89,19132238
-1.15,-0.71,0.04,0.17,0.89,19136194
-1.10,-0.72,0.06,0.14,0.89,19140140
-1.06,-0.74,0.06,0.09,0.89,19144085
-1.06,-0.75,0.05,0.01,0.90,19148032
-1.08,-0.75,0.03,-0.08,0.90,19151968
-1.13,-0.76,0.03,-0.15,0.91,19155929
-1.18,-0.77,0.03,-0.17,0.91,19159874
-1.23,-0.78,0.04,-0.16,0.91,19163829
-1.26,-0.79,0.04,-0.12,0.90,19167776
-1.30,-0.80,0.04,-0.13,0.90,19171720
-1.34,-0.80,0.02,-0.16,0.89,19175678
-1.40,-0.79,0.01,-0.19,0.90,19179619
-1.45,-0.78,-0.01,-0.17,0.90,19183579
-1.48,-0.77,-0.03,-0.13,0.89,19187526
-1.49,-0.75,-0.03,-0.06,0.89,19191471
-1.47,-0.74,-0.04,0.02,0.88,19195432
-1.44,-0.72,-0.04,0.08,0.88,19199379
-1.39,-0.71,-0.03,0.11,0.87,19203337
-1.34,-0.70,-0.02,0.13,0.89,19207280
-1.28,-0.69,-0.01,0.16,0.88,19211231
-1.21,-0.70,0.02,0.17,0.89,19215186
-1.15,-0.71,0.04,0.17,0.88,19219134
-1.10,-0.72,0.06,0.13,0.89,19223091
-1.08,-0.73,0.05,0.07,0.89,19227028
-1.08,-0.74,0.04,-0.01,0.89,19230976
-1.11,-0.75,0.03,-0.10,0.90,19234933
-1.16,-0.76,0.03,-0.17,0.91,19238882
-1.21,-0.76,0.04,-0.18,0.90,19242841
-1.25,-0.77,0.04,-0.14,0.90,19246790
-1.29,-0.78,0.04,-0.12,0.89,19250738
-1.33,-0.79,0.03,-0.14,0.90,19254688
-1.38,-0.79,0.01,-0.17,0.89,19258639
-1.43,-0.78,-0.00,-0.19,0.90,19262591
-1.47,-0.77,-0.02,-0.16,0.90,19266533
-1.50,-0.76,-0.03,-0.11,0.89,19270482
-1.50,-0.74,-0.03,-0.03,0.89,19274433
-1.48,-0.73,-0.04,0.04,0.88,19278376
-1.44,-0.71,-0.04,0.09,0.88,19282331
-1.39,-0.70,-0.03,0.12,0.87,19286273
-1.34,-0.69,-0.02,0.13,0.89,19290229
-1.28,-0.68,-0.00,0.16,0.89,19294185
-1.21,-0.69,0.02,0.17,0.89,19298137
-1.15,-0.70,0.05,0.16,0.88,19302092
-1.11,-0.72,0.06,0.12,0.89,19306037
-1.09,-0.73,0.05,0.06,0.89,19309992
-1.09,-0.74,0.04,-0.03,0.90,19313929
-1.13,-0.75,0.03,-0.12,0.90,19317879
-1.19,-0.75,0.03,-0.18,0.91,19321841
-1.24,-0.76,0.04,-0.18,0.91,19325790
-1.28,-0.77,0.04,-0.14,0.90,19329750
-1.31,-0.78,0.04,-0.12,0.90,19333695
-1.36,-0.78,0.02,-0.16,0.89,19337641
-1.41,-0.78,0.01,-0.18,0.90,19341600
-1.46,-0.77,-0.00,-0.17,0.90,19345541
-1.49,-0.77,-0.01,-0.14,0.90,19349505
-1.51,-0.75,-0.03,-0.08,0.90,19353447
-1.50,-0.74,-0.03,-0.01,0.89,19357394
-1.47,-0.72,-0.04,0.06,0.88,19361348
-1.43,-0.71,-0.04,0.10,0.88,19365293
-1.38,-0.69,-0.03,0.12,0.88,19369253
-1.32,-0.68,-0.02,0.14,0.89,19373195
-1.26,-0.68,0.01,0.17,0.89,19377151
-1.20,-0.69,0.03,0.17,0.89,19381094
-1.14,-0.70,0.06,0.15,0.89,19385042
-1.11,-0.72,0.06,0.10,0.89,19388997
-1.09,-0.73,0.05,0.03,0.89,19392937
-1.11,-0.74,0.04,-0.06,0.90,19396888
-1.15,-0.75,0.03,-0.14,0.90,19400832
-1.21,-0.75,0.03,-0.17,0.91,19404779
-1.25,-0.76,0.04,-0.16,0.91,19408739
-1.29,-0.77,0.04,-0.13,0.89,19412686
-1.33,-0.78,0.04,-0.14,0.90,19416646
-1.37,-0.78,0.02,-0.17,0.89,19420590
-1.43,-0.77,0.01,-0.19,0.90,19424538
-1.47,-0.77,-0.01,-0.17,0.90,19428494
-1.50,-0.75,-0.03,-0.12,0.89,19432445
-1.51,-0.73,-0.04,-0.05,0.89,19436407
-1.49,-0.72,-0.05,0.03,0.88,19440352
-1.46,-0.70,-0.04,0.07,0.88,19444297
-1.41,-0.68,-0.03,0.11,0.87,19448263
-1.36,-0.67,-0.02,0.13,0.88,19452204
-1.30,-0.67,-0.00,0.15,0.89,19456159
-1.24,-0.67,0.02,0.17,0.89,19460111
-1.17,-0.69,0.04,0.17,0.89,19464063
-1.12,-0.70,0.06,0.14,0.89,19468020
-1.09,-0.71,0.05,0.09,0.90,19471953
-1.08,-0.72,0.04,0.01,0.89,19475902
-1.11,-0.73,0.03,-0.08,0.90,19479841
-1.16,-0.73,0.03,-0.15,0.91,19483792
-1.21,-0.74,0.03,-0.18,0.91,19487743
-1.25,-0.75,0.04,-0.15,0.90,19491690
-1.29,-0.76,0.04,-0.12,0.89,19495658
-1.33,-0.76,0.03,-0.15,0.90,19499599
-1.38,-0.76,0.01,-0.17,0.90,19503557
-1.43,-0.76,-0.00,-0.19,0.90,19507508
-1.48,-0.75,-0.02,-0.16,0.89,19511454
-1.50,-0.73,-0.03,-0.11,0.89,19515418
-1.50,-0.72,-0.03,-0.03,0.89,19519364
-1.48,-0.70,-0.03,0.04,0.88,19523311
-1.43,-0.69,-0.03,0.10,0.88,19527265
-1.38,-0.68,-0.03,0.13,0.88,19531213
-1.33,-0.67,-0.02,0.14,0.89,19535167
-1.27,-0.66,-0.00,0.16,0.88,19539113
-1.20,-0.67,0.02,0.17,0.89,19543071
-1.14,-0.68,0.04,0.16,0.88,19547018
-1.10,-0.69,0.06,0.13,0.89,19550970
-1.07,-0.71,0.06,0.07,0.89,19554923
-1.07,-0.72,0.05,-0.02,0.89,19558865
-1.11,-0.73,0.03,-0.11,0.90,19562823
-1.16,-0.73,0.03,-0.17,0.91,19566768
-1.21,-0.74,0.03,-0.17,0.91,19570724
-1.25,-0.75,0.04,-0.14,0.90,19574683
-1.28,-0.76,0.04,-0.12,0.89,19578634
-1.33,-0.76,0.02,-0.16,0.89,19582591
-1.38,-0.76,0.01,-0.18,0.90,19586536
-1.43,-0.75,0.00,-0.19,0.90,19590481
-1.47,-0.75,-0.01,-0.15,0.90,19594429
-1.49,-0.73,-0.03,-0.08,0.90,19598377
-1.48,-0.72,-0.04,-0.01,0.89,19602339
-1.45,-0.70,-0.04,0.06,0.88,19606282
-1.41,-0.68,-0.04,0.11,0.87,19610232
-1.36,-0.67,-0.03,0.13,0.88,19614189
-1.30,-0.66,-0.01,0.15,0.88,19618137
-1.23,-0.67,0.02,0.17,0.89,19622103
-1.17,-0.68,0.04,0.18,0.89,19626053
-1.11,-0.69,0.06,0.15,0.89,19630003
-1.07,-0.71,0.06,0.11,0.89,19633946
-1.05,-0.72,0.05,0.05,0.90,19637882
-1.07,-0.73,0.04,-0.05,0.90,19641831
-1.11,-0.73,0.03,-0.13,0.91,19645778
-1.16,-0.74,0.03,-0.18,0.91,19649730
-1.21,-0.75,0.04,-0.17,0.91,19653674
-1.25,-0.76,0.04,-0.13,0.90,19657630
-1.29,-0.77,0.04,-0.12,0.90,19661589
-1.33,-0.77,0.02,-0.16,0.89,19665535
-1.38,-0.77,0.01,-0.18,0.90,19669493
-1.43,-0.76,-0.01,-0.17,0.90,19673435
-1.46,-0.75,-0.02,-0.13,0.89,19677386
-1.47,-0.73,-0.03,-0.06,0.90,19681338
-1.46,-0.72,-0.04,0.02,0.88,19685276
-1.42,-0.70,-0.04,0.08,0.88,19689226
-1.37,-0.68,-0.04,0.11,0.87,19693178
-1.32,-0.67,-0.02,0.13,0.89,19697130
-1.26,-0.67,-0.01,0.16,0.88,19701088
-1.20,-0.67,0.02,0.18,0.89,19705032
-1.13,-0.68,0.04,0.17,0.88,19708988
-1.08,-0.70,0.06,0.13,0.89,19712927
-1.06,-0.71,0.06,0.07,0.89,19716874
-1.06,-0.72,0.05,-0.01,0.89,19720819
-1.08,-0.73,0.04,-0.08,0.90,19724758
-1.13,-0.73,0.03,-0.15,0.91,19728721
-1.18,-0.74,0.03,-0.18,0.91,19732666
-1.22,-0.75,0.04,-0.15,0.91,19736624
-1.26,-0.76,0.04,-0.12,0.90,19740569
-1.30,-0.77,0.03,-0.14,0.90,19744517
-1.34,-0.77,0.02,-0.16,0.89,19748471
-1.39,-0.77,0.01,-0.18,0.90,19752418
-1.44,-0.76,-0.01,-0.16,0.90,19756369
-1.47,-0.74,-0.03,-0.11,0.90,19760314
-1.47,-0.73,-0.04,-0.04,0.89,19764261
-1.45,-0.71,-0.04,0.04,0.88,19768214
-1.41,-0.69,-0.04,0.09,0.88,19772154
-1.36,-0.68,-0.03,0.12,0.87,19776112
-1.30,-0.67,-0.02,0.14,0.89,19780058
-1.24,-0.67,0.00,0.17,0.89,19784008
-1.17,-0.67,0.03,0.18,0.89,19787960
-1.11,-0.69,0.05,0.16,0.88,19791912
-1.07,-0.70,0.06,0.12,0.89,19795860
-1.05,-0.71,0.05,0.05,0.90,19799798
-1.06,-0.72,0.04,-0.04,0.90,19803742
-1.10,-0.73,0.03,-0.13,0.91,19807692
-1.15,-0.74,0.03,-0.18,0.91,19811640
-1.21,-0.74,0.04,-0.18,0.91,19815591
-1.25,-0.75,0.04,-0.14,0.90,19819537
-1.28,-0.77,0.04,-0.11,0.90,19823490
-1.32,-0.77,0.02,-0.15,0.89,19827447
-1.37,-0.77,0.01,-0.17,0.90,19831396
-1.42,-0.76,-0.01,-0.19,0.90,19835350
-1.46,-0.75,-0.02,-0.15,0.89,19839297
-1.48,-0.73,-0.03,-0.09,0.90,19843239
-1.48,-0.72,-0.04,-0.02,0.89,19847193
-1.45,-0.70,-0.04,0.05,0.88,19851134
-1.41,-0.68,-0.04,0.10,0.87,19855090
-1.36,-0.67,-0.03,0.13,0.88,19859037
-1.30,-0.66,-0.02,0.14,0.88,19862986
-1.24,-0.66,0.01,0.17,0.89,19866932
-1.17,-0.67,0.03,0.17,0.89,19870878
-1.12,-0.69,0.06,0.15,0.89,19874842
-1.08,-0.70,0.06,0.10,0.90,19878771
-1.07,-0.72,0.06,0.03,0.90,19882714
-1.09,-0.72,0.04,-0.06,0.90,19886651
-1.13,-0.73,0.03,-0.14,0.91,19890600
-1.19,-0.74,0.03,-0.18,0.91,19894562
-1.23,-0.75,0.04,-0.17,0.91,19898512
-1.27,-0.76,0.05,-0.12,0.90,19902472
-1.30,-0.77,0.04,-0.12,0.90,19906413
-1.35,-0.77,0.02,-0.15,0.89,19910367
-1.40,-0.77,0.01,-0.18,0.90,19914323
-1.45,-0.76,-0.01,-0.18,0.90,19918265
-1.49,-0.75,-0.03,-0.14,0.89,19922224
-1.50,-0.73,-0.04,-0.07,0.89,19926164
-1.49,-0.71,-0.04,0.01,0.88,19930111
-1.45,-0.70,-0.04,0.07,0.88,19934062
-1.41,-0.68,-0.03,0.11,0.87,19938013
-1.35,-0.67,-0.03,0.14,0.88,19941969
-1.29,-0.66,-0.01,0.16,0.88,19945920
-1.23,-0.66,0.01,0.18,0.89,19949871
-1.16,-0.67,0.03,0.17,0.88,19953814
-1.11,-0.69,0.05,0.14,0.89,19957758
-1.08,-0.70,0.06,0.09,0.89,19961707
-1.07,-0.71,0.05,0.00,0.89,19965644
-1.10,-0.72,0.04,-0.09,0.90,19969585
-1.15,-0.72,0.03,-0.16,0.91,19973531
-1.20,-0.73,0.03,-0.18,0.91,19977484
-1.25,-0.74,0.04,-0.15,0.91,19981451
-1.28,-0.75,0.04,-0.11,0.89,19985402
-1.32,-0.76,0.03,-0.14,0.90,19989355
-1.36,-0.76,0.01,-0.16,0.89,19993299
-1.42,-0.75,0.00,-0.18,0.90,19997246
-1.46,-0.74,-0.01,-0.17,0.89,20001210
-1.50,-0.73,-0.03,-0.13,0.89,20005152
-1.51,-0.71,-0.03,-0.06,0.89,20009106
-1.49,-0.70,-0.04,0.02,0.88,20013043
-1.45,-0.68,-0.03,0.09,0.87,20016990
-1.40,-0.67,-0.03,0.12,0.87,20020952
-1.35,-0.66,-0.02,0.13,0.88,20024896
-1.29,-0.66,-0.00,0.16,0.88,20028851
-1.22,-0.66,0.02,0.17,0.89,20032799
-1.16,-0.67,0.04,0.17,0.88,20036746
-1.11,-0.69,0.06,0.13,0.89,20040698
-1.09,-0.70,0.05,0.07,0.90,20044633
-1.09,-0.71,0.04,-0.02,0.90,20048582
-1.13,-0.72,0.03,-0.11,0.91,20052533
-1.18,-0.73,0.03,-0.17,0.91,20056496
-1.23,-0.73,0.04,-0.18,0.91,20060441
-1.27,-0.75,0.04,-0.14,0.90,20064388
-1.31,-0.76,0.04,-0.12,0.89,20068351
-1.35,-0.76,0.02,-0.15,0.90,20072294
-1.40,-0.76,0.01,-0.17,0.89,20076253
-1.45,-0.75,-0.01,-0.18,0.90,20080196
-1.49,-0.74,-0.02,-0.15,0.89,20084149
-1.52,-0.72,-0.03,-0.11,0.90,20088102
-1.52,-0.71,-0.03,-0.03,0.89,20092049
-1.49,-0.69,-0.04,0.05,0.88,20096004
-1.45,-0.68,-0.03,0.10,0.88,20099954
-1.39,-0.67,-0.03,0.13,0.88,20103906
-1.34,-0.66,-0.01,0.14,0.89,20107869
-1.28,-0.66,0.01,0.17,0.89,20111820
-1.22,-0.66,0.03,0.17,0.90,20115778
-1.16,-0.68,0.05,0.16,0.89,20119726
-1.12,-0.69,0.06,0.11,0.90,20123680
-1.10,-0.71,0.05,0.04,0.90,20127620
-1.11,-0.71,0.04,-0.05,0.90,20131565
-1.15,-0.72,0.03,-0.13,0.91,20135523
-1.21,-0.73,0.03,-0.18,0.91,20139471
-1.26,-0.74,0.04,-0.17,0.91,20143428
-1.29,-0.75,0.04,-0.13,0.90,20147381
-1.33,-0.75,0.04,-0.13,0.89,20151332
-1.37,-0.75,0.02,-0.16,0.89,20155286
-1.43,-0.75,0.00,-0.18,0.90,20159229
-1.47,-0.74,-0.01,-0.17,0.90,20163189
-1.51,-0.73,-0.03,-0.13,0.89,20167141
-1.52,-0.71,-0.03,-0.06,0.89,20171084
-1.50,-0.70,-0.04,0.02,0.88,20175027
-1.46,-0.68,-0.04,0.08,0.88,20178970
-1.41,-0.67,-0.03,0.11,0.87,20182922
-1.36,-0.66,-0.03,0.13,0.88,20186877
-1.30,-0.65,-0.01,0.15,0.89,20190823
-1.24,-0.65,0.01,0.17,0.89,20194787
-1.18,-0.66,0.03,0.17,0.89,20198735
-1.13,-0.67,0.05,0.14,0.89,20202692
-1.09,-0.69,0.06,0.09,0.90,20206625
-1.08,-0.70,0.05,0.01,0.89,20210570
-1.11,-0.71,0.03,-0.08,0.90,20214529
-1.15,-0.71,0.03,-0.15,0.91,20218480
-1.21,-0.72,0.03,-0.18,0.91,20222441
-1.25,-0.73,0.04,-0.15,0.90,20226384
-1.29,-0.74,0.04,-0.12,0.89,20230340
-1.33,-0.75,0.03,-0.14,0.90,20234300
-1.38,-0.74,0.01,-0.17,0.89,20238246
-1.43,-0.74,-0.00,-0.19,0.90,20242191
-1.47,-0.73,-0.02,-0.16,0.89,20246132
-1.50,-0.71,-0.03,-0.11,0.89,20250083
-1.50,-0.69,-0.04,-0.03,0.89,20254034
-1.48,-0.68,-0.04,0.04,0.88,20257972
-1.43,-0.66,-0.04,0.10,0.88,20261932
-1.38,-0.65,-0.03,0.12,0.87,20265879
-1.33,-0.64,-0.02,0.13,0.89,20269833
-1.27,-0.63,-0.01,0.16,0.89,20273793
-1.21,-0.64,0.02,0.17,0.89,20277742
-1.15,-0.65,0.04,0.17,0.89,20281697
-1.10,-0.66,0.06,0.13,0.89,20285641
-1.07,-0.67,0.05,0.07,0.90,20289582
-1.07,-0.68,0.04,-0.01,0.89,20293528
-1.10,-0.69,0.02,-0.10,0.90,20297477
-1.15,-0.69,0.02,-0.16,0.91,20301434
-1.21,-0.70,0.03,-0.18,0.91,20305377
-1.25,-0.71,0.03,-0.15,0.90,20309331
-1.28,-0.71,0.03,-0.12,0.89,20313281
-1.33,-0.71,0.01,-0.16,0.89,20317234
-1.38,-0.71,-0.00,-0.17,0.89,20321191
-1.43,-0.70,-0.02,-0.18,0.89,20325136
-1.47,-0.68,-0.04,-0.14,0.89,20329096
-1.48,-0.66,-0.05,-0.08,0.89,20333043
-1.47,-0.64,-0.06,-0.01,0.89,20336992
-1.44,-0.62,-0.05,0.06,0.88,20340947
-1.40,-0.61,-0.04,0.10,0.88,20344893
-1.35,-0.60,-0.03,0.13,0.88,20348847
-1.29,-0.59,-0.01,0.15,0.89,20352795
-1.22,-0.60,0.01,0.18,0.89,20356749
-1.16,-0.61,0.03,0.17,0.89,20360707
-1.10,-0.62,0.05,0.15,0.89,20364648
-1.06,-0.64,0.06,0.11,0.89,20368606
-1.04,-0.66,0.06,0.04,0.90,20372539
-1.06,-0.67,0.04,-0.05,0.90,20376488
-1.10,-0.68,0.04,-0.13,0.91,20380444
-1.15,-0.69,0.05,-0.18,0.91,20384392
-1.20,-0.71,0.06,-0.17,0.91,20388345
-1.24,-0.73,0.06,-0.13,0.90,20392290
-1.28,-0.74,0.06,-0.13,0.90,20396248
-1.32,-0.75,0.04,-0.17,0.89,20400197
-1.38,-0.75,0.03,-0.18,0.90,20404147
-1.43,-0.75,0.02,-0.18,0.90,20408104
-1.46,-0.75,0.01,-0.14,0.90,20412052
-1.47,-0.75,0.01,-0.07,0.90,20416010
-1.46,-0.75,0.01,0.01,0.89,20419957
-1.43,-0.75,0.01,0.07,0.88,20423905
-1.38,-0.75,0.01,0.11,0.88,20427864
-1.33,-0.74,0.01,0.12,0.89,20431812
-1.28,-0.74,0.01,0.15,0.89,20435765
-1.21,-0.75,0.03,0.17,0.90,20439714
-1.15,-0.76,0.05,0.17,0.89,20443663
-1.10,-0.77,0.06,0.14,0.90,20447605
-1.07,-0.78,0.06,0.08,0.90,20451546
-1.07,-0.79,0.04,0.00,0.90,20455492
-1.09,-0.79,0.03,-0.07,0.90,20459439
-1.13,-0.79,0.02,-0.15,0.91,20463408
-1.19,-0.79,0.02,-0.18,0.91,20467352
-1.24,-0.79,0.03,-0.16,0.91,20471307
-1.28,-0.80,0.03,-0.13,0.89,20475258
-1.32,-0.80,0.03,-0.14,0.90,20479202
-1.37,-0.79,0.01,-0.17,0.89,20483164
-1.43,-0.79,0.00,-0.19,0.90,20487102
-1.47,-0.77,-0.02,-0.16,0.90,20491056
-1.50,-0.76,-0.04,-0.11,0.89,20495015
-1.50,-0.73,-0.05,-0.03,0.89,20498949
-1.47,-0.70,-0.07,0.04,0.87,20502898
-1.43,-0.67,-0.08,0.10,0.87,20506845
-1.38,-0.64,-0.08,0.12,0.87,20510799
-1.33,-0.62,-0.07,0.12,0.88,20514764
-1.28,-0.60,-0.05,0.15,0.88,20518711
-1.21,-0.59,-0.01,0.16,0.89,20522670
-1.16,-0.60,0.02,0.16,0.88,20526611
-1.11,-0.61,0.04,0.12,0.89,20530563
-1.09,-0.62,0.03,0.06,0.89,20534512
-1.09,-0.62,0.01,-0.02,0.90,20538451
-1.12,-0.62,0.01,-0.11,0.90,20542412
-1.17,-0.62,0.01,-0.17,0.90,20546352
-1.23,-0.63,0.02,-0.18,0.90,20550306
-1.27,-0.63,0.03,-0.15,0.90,20554250
-1.30,-0.65,0.04,-0.13,0.90,20558196
-1.35,-0.65,0.02,-0.16,0.90,20562149
-1.40,-0.65,0.01,-0.18,0.90,20566093
-1.45,-0.65,-0.00,-0.18,0.90,20570053
-1.49,-0.64,-0.02,-0.15,0.89,20574004
-1.50,-0.63,-0.03,-0.08,0.89,20577944
-1.49,-0.62,-0.04,0.00,0.89,20581894
-1.46,-0.61,-0.03,0.07,0.88,20585836
-1.41,-0.60,-0.02,0.10,0.88,20589786
-1.36,-0.60,-0.00,0.12,0.88,20593726
-1.31,-0.60,0.01,0.13,0.89,20597671
-1.25,-0.61,0.03,0.17,0.89,20601629
-1.18,-0.63,0.05,0.17,0.89,20605578
-1.13,-0.65,0.07,0.15,0.89,20609542
-1.09,-0.67,0.07,0.10,0.90,20613479
-1.08,-0.68,0.06,0.02,0.90,20617420
-1.10,-0.70,0.05,-0.06,0.90,20621357
-1.14,-0.71,0.05,-0.14,0.91,20625312
-1.19,-0.73,0.06,-0.18,0.91,20629272
-1.24,-0.74,0.06,-0.16,0.91,20633220
-1.28,-0.76,0.06,-0.13,0.90,20637171
-1.32,-0.77,0.06,-0.13,0.90,20641126
-1.36,-0.78,0.04,-0.16,0.90,20645069
-1.42,-0.78,0.03,-0.18,0.90,20649030
-1.47,-0.78,0.01,-0.17,0.90,20652972
-1.50,-0.77,-0.00,-0.13,0.90,20656923
-1.51,-0.76,-0.01,-0.06,0.90,20660866
-1.50,-0.75,-0.01,0.01,0.89,20664810
-1.46,-0.74,-0.02,0.07,0.88,20668767
-1.42,-0.72,-0.03,0.10,0.88,20672715
-1.37,-0.71,-0.03,0.12,0.88,20676670
-1.31,-0.70,-0.02,0.15,0.89,20680614
-1.25,-0.69,-0.00,0.17,0.89,20684556
-1.19,-0.69,0.02,0.17,0.88,20688518
-1.14,-0.70,0.04,0.14,0.89,20692462
-1.10,-0.71,0.04,0.09,0.90,20696410
-1.10,-0.71,0.02,0.01,0.89,20700354
-1.12,-0.71,0.01,-0.08,0.90,20704300
-1.17,-0.71,0.01,-0.15,0.90,20708255
-1.22,-0.71,0.01,-0.17,0.90,20712201
-1.27,-0.71,0.02,-0.15,0.90,20716152
-1.31,-0.71,0.03,-0.13,0.89,20720099
-1.35,-0.71,0.02,-0.16,0.90,20724049
-1.40,-0.71,0.01,-0.18,0.89,20728008
-1.45,-0.71,-0.00,-0.19,0.90,20731948
-1.50,-0.70,-0.02,-0.16,0.89,20735897
-1.52,-0.68,-0.04,-0.11,0.89,20739850
-1.52,-0.65,-0.06,-0.03,0.89,20743801
-1.50,-0.63,-0.07,0.04,0.87,20747756
-1.45,-0.60,-0.06,0.10,0.87,20751690
-1.41,-0.59,-0.05,0.11,0.87,20755643
-1.36,-0.57,-0.04,0.12,0.89,20759590
-1.30,-0.57,-0.01,0.15,0.89,20763539
-1.24,-0.57,0.02,0.16,0.90,20767492
-1.18,-0.59,0.04,0.16,0.89,20771443
-1.13,-0.60,0.05,0.12,0.89,20775399
-1.11,-0.61,0.05,0.07,0.90,20779337
-1.11,-0.62,0.03,-0.01,0.90,20783290
-1.14,-0.63,0.03,-0.10,0.90,20787228
-1.19,-0.64,0.03,-0.16,0.91,20791182
-1.24,-0.65,0.05,-0.17,0.91,20795145
-1.28,-0.67,0.05,-0.15,0.90,20799095
-1.32,-0.68,0.05,-0.14,0.90,20803047
-1.37,-0.69,0.03,-0.17,0.90,20806992
-1.42,-0.69,0.02,-0.18,0.90,20810944
-1.47,-0.69,0.00,-0.18,0.90,20814894
-1.50,-0.68,-0.01,-0.13,0.89,20818838
-1.52,-0.68,-0.02,-0.06,0.90,20822789
-1.51,-0.67,-0.02,-0.01,0.89,20826728
-1.48,-0.66,-0.01,0.06,0.88,20830684
-1.44,-0.66,-0.00,0.10,0.88,20834627
-1.39,-0.65,-0.00,0.11,0.89,20838569
-1.34,-0.65,0.00,0.12,0.89,20842528
-1.28,-0.66,0.02,0.16,0.89,20846472
-1.22,-0.67,0.04,0.17,0.89,20850426
-1.16,-0.68,0.05,0.15,0.89,20854376
-1.12,-0.69,0.06,0.10,0.90,20858315
-1.11,-0.70,0.05,0.04,0.90,20862264
-1.12,-0.71,0.04,-0.05,0.90,20866210
-1.16,-0.72,0.03,-0.13,0.91,20870168
-1.22,-0.73,0.04,-0.17,0.91,20874116
-1.26,-0.74,0.04,-0.17,0.91,20878064
-1.30,-0.75,0.04,-0.14,0.90,20882012
-1.35,-0.75,0.04,-0.15,0.90,20885949
-1.40,-0.75,0.03,-0.17,0.89,20889905
-1.45,-0.75,0.02,-0.19,0.90,20893852
-1.50,-0.75,0.00,-0.17,0.90,20897793
-1.53,-0.74,-0.02,-0.12,0.89,20901745
-1.53,-0.72,-0.03,-0.04,0.89,20905691
-1.51,-0.70,-0.04,0.03,0.88,20909639
-1.47,-0.68,-0.04,0.08,0.88,20913584
-1.43,-0.67,-0.05,0.11,0.87,20917542
-1.38,-0.65,-0.04,0.12,0.88,20921498
-1.32,-0.64,-0.03,0.14,0.88,20925454
-1.26,-0.63,-0.01,0.16,0.89,20929417
-1.20,-0.63,0.02,0.16,0.88,20933361
-1.15,-0.64,0.03,0.14,0.89,20937312
-1.12,-0.65,0.04,0.09,0.89,20941264
-1.11,-0.65,0.02,0.02,0.89,20945213
-1.13,-0.65,0.01,-0.07,0.90,20949170
-1.17,-0.65,0.01,-0.14,0.90,20953121
-1.23,-0.66,0.02,-0.18,0.91,20957085
-1.27,-0.66,0.03,-0.16,0.90,20961036
-1.31,-0.68,0.04,-0.14,0.90,20964981
-1.36,-0.68,0.03,-0.16,0.90,20968937
-1.41,-0.69,0.02,-0.18,0.90,20972884
-1.46,-0.68,0.00,-0.18,0.90,20976840
-1.50,-0.67,-0.02,-0.15,0.89,20980783
-1.52,-0.66,-0.03,-0.09,0.89,20984731
-1.51,-0.64,-0.04,-0.01,0.89,20988686
-1.48,-0.63,-0.04,0.06,0.87,20992629
-1.43,-0.61,-0.03,0.10,0.88,20996587
-1.39,-0.61,-0.02,0.12,0.88,21000535
-1.34,-0.60,-0.01,0.12,0.89,21004489
-1.28,-0.60,0.01,0.16,0.89,21008453
-1.21,-0.61,0.02,0.16,0.90,21012401
-1.16,-0.62,0.04,0.16,0.88,21016360
-1.11,-0.64,0.05,0.12,0.90,21020301
-1.09,-0.65,0.05,0.06,0.90,21024244
-1.09,-0.66,0.04,-0.02,0.90,21028190
-1.12,-0.67,0.03,-0.11,0.90,21032135
-1.17,-0.68,0.04,-0.16,0.91,21036091
-1.22,-0.69,0.05,-0.17,0.91,21040035
-1.26,-0.71,0.06,-0.14,0.90,21043981
-1.30,-0.72,0.05,-0.13,0.90,21047928
-1.35,-0.73,0.03,-0.16,0.90,21051868
-1.40,-0.73,0.02,-0.18,0.90,21055816
-1.45,-0.73,0.01,-0.18,0.90,21059757
-1.49,-0.72,-0.01,-0.14,0.90,21063717
-1.50,-0.71,-0.01,-0.07,0.89,21067664
-1.49,-0.70,-0.02,0.01,0.89,21071597
-1.45,-0.69,-0.01,0.07,0.88,21075554
-1.41,-0.68,-0.02,0.11,0.88,21079514
-1.36,-0.67,-0.02,0.12,0.88,21083476
-1.30,-0.66,-0.02,0.14,0.89,21087423
-1.24,-0.66,0.00,0.16,0.89,21091368
-1.18,-0.66,0.02,0.17,0.89,21095325
-1.13,-0.67,0.04,0.14,0.89,21099268
-1.09,-0.68,0.04,0.11,0.89,21103218
-1.07,-0.69,0.04,0.04,0.89,21107157
-1.08,-0.69,0.02,-0.04,0.90,21111100
-1.12,-0.69,0.02,-0.13,0.91,21115063
-1.18,-0.70,0.02,-0.17,0.91,21119006
-1.23,-0.70,0.03,-0.17,0.91,21122965
-1.26,-0.71,0.04,-0.13,0.90,21126913
-1.30,-0.72,0.04,-0.14,0.90,21130865
-1.35,-0.72,0.02,-0.17,0.89,21134820
-1.41,-0.72,0.01,-0.19,0.90,21138772
-1.45,-0.71,-0.01,-0.17,0.89,21142732
-1.48,-0.70,-0.03,-0.12,0.89,21146684
-1.49,-0.68,-0.04,-0.04,0.89,21150637
-1.46,-0.66,-0.05,0.04,0.88,21154590
-1.42,-0.65,-0.04,0.09,0.87,21158533
-1.37,-0.63,-0.04,0.12,0.87,21162489
-1.32,-0.62,-0.03,0.12,0.89,21166436
-1.26,-0.61,-0.01,0.15,0.88,21170386
-1.21,-0.61,0.01,0.16,0.89,21174344
-1.15,-0.62,0.03,0.16,0.88,21178288
-1.10,-0.63,0.04,0.13,0.89,21182240
-1.07,-0.64,0.04,0.07,0.89,21186179
-1.07,-0.64,0.03,-0.01,0.89,21190137
-1.10,-0.65,0.02,-0.10,0.90,21194077
-1.15,-0.65,0.02,-0.15,0.91,21198028
-1.20,-0.66,0.03,-0.18,0.91,21201982
-1.24,-0.67,0.04,-0.15,0.90,21205929
-1.28,-0.69,0.05,-0.13,0.90,21209882
-1.32,-0.70,0.04,-0.15,0.90,21213822
-1.37,-0.70,0.02,-0.17,0.89,21217772
-1.42,-0.70,0.01,-0.18,0.90,21221718
-1.46,-0.69,-0.01,-0.15,0.89,21225668
-1.48,-0.68,-0.02,-0.09,0.90,21229620
-1.48,-0.67,-0.02,-0.02,0.88,21233563
-1.45,-0.66,-0.02,0.05,0.88,21237525
-1.41,-0.65,-0.01,0.10,0.88,21241487
-1.36,-0.64,-0.01,0.12,0.88,21245438
-1.31,-0.64,-0.01,0.13,0.89,21249398
-1.25,-0.64,0.01,0.16,0.89,21253353
-1.19,-0.64,0.02,0.16,0.89,21257307
-1.13,-0.65,0.04,0.15,0.88,21261265
-1.09,-0.66,0.04,0.11,0.89,21265215
-1.07,-0.67,0.04,0.04,0.89,21269168
-1.09,-0.68,0.03,-0.04,0.90,21273103
-1.13,-0.68,0.03,-0.13,0.91,21277060
-1.18,-0.69,0.04,-0.18,0.91,21281009
-1.23,-0.70,0.05,-0.16,0.91,21284960
-1.27,-0.72,0.05,-0.13,0.90,21288913
-1.30,-0.73,0.04,-0.13,0.90,21292855
-1.35,-0.73,0.03,-0.16,0.89,21296811
-1.40,-0.73,0.02,-0.18,0.90,21300752
-1.45,-0.73,0.00,-0.18,0.90,21304699
-1.49,-0.72,-0.01,-0.14,0.90,21308647
-1.50,-0.71,-0.02,-0.07,0.90,21312582
-1.49,-0.70,-0.02,0.01,0.89,21316535
-1.45,-0.68,-0.03,0.08,0.88,21320477
-1.41,-0.67,-0.03,0.11,0.88,21324438
-1.36,-0.65,-0.03,0.12,0.89,21328396
-1.30,-0.64,-0.03,0.14,0.89,21332345
-1.24,-0.63,-0.01,0.16,0.89,21336302
-1.18,-0.64,0.01,0.16,0.89,21340246
-1.13,-0.64,0.03,0.14,0.89,21344200
-1.10,-0.65,0.04,0.09,0.89,21348150
-1.09,-0.66,0.03,0.02,0.89,21352091
-1.11,-0.66,0.02,-0.07,0.90,21356046
-1.16,-0.67,0.02,-0.15,0.90,21359989
-1.21,-0.67,0.03,-0.18,0.91,21363947
-1.26,-0.68,0.03,-0.15,0.90,21367895
-1.29,-0.69,0.04,-0.12,0.90,21371840
-1.33,-0.70,0.03,-0.14,0.90,21375794
-1.38,-0.70,0.02,-0.17,0.90,21379735
-1.43,-0.70,0.01,-0.18,0.90,21383685
-1.48,-0.69,-0.00,-0.16,0.90,21387624
-1.50,-0.68,-0.02,-0.12,0.90,21391570
-1.51,-0.67,-0.03,-0.04,0.89,21395530
-1.48,-0.65,-0.03,0.03,0.88,21399475
-1.44,-0.64,-0.03,0.09,0.88,21403431
-1.40,-0.62,-0.03,0.11,0.88,21407379
-1.35,-0.61,-0.02,0.12,0.89,21411322
-1.29,-0.61,-0.01,0.15,0.89,21415277
-1.23,-0.61,0.01,0.16,0.89,21419226
-1.17,-0.62,0.03,0.16,0.88,21423182
-1.12,-0.63,0.05,0.12,0.89,21427133
-1.10,-0.64,0.04,0.07,0.90,21431072
-1.10,-0.65,0.03,-0.02,0.89,21435021
-1.14,-0.66,0.03,-0.11,0.90,21438967
-1.19,-0.67,0.03,-0.17,0.91,21442925
-1.24,-0.68,0.04,-0.17,0.91,21446874
-1.28,-0.69,0.05,-0.14,0.90,21450832
-1.31,-0.70,0.04,-0.12,0.89,21454778
-1.36,-0.71,0.03,-0.15,0.89,21458730
-1.41,-0.71,0.02,-0.17,0.90,21462686
-1.45,-0.71,0.01,-0.18,0.90,21466628
-1.49,-0.70,-0.00,-0.14,0.90,21470573
-1.50,-0.69,-0.01,-0.07,0.89,21474519
-1.50,-0.68,-0.02,-0.01,0.89,21478470
-1.47,-0.67,-0.02,0.06,0.88,21482422
-1.42,-0.66,-0.02,0.10,0.88,21486371
-1.37,-0.65,-0.02,0.12,0.88,21490319
-1.32,-0.64,-0.02,0.13,0.89,21494276
-1.26,-0.64,-0.00,0.16,0.89,21498213
-1.20,-0.64,0.02,0.16,0.89,21502163
-1.14,-0.65,0.04,0.15,0.89,21506116
-1.10,-0.66,0.04,0.10,0.89,21510065
-1.09,-0.67,0.04,0.03,0.89,21514009
-1.11,-0.67,0.02,-0.06,0.90,21517955
-1.15,-0.68,0.02,-0.14,0.91,21521908
-1.20,-0.68,0.02,-0.17,0.90,21525849
-1.25,-0.69,0.03,-0.16,0.90,21529809
-1.29,-0.70,0.04,-0.12,0.89,21533752
-1.32,-0.71,0.04,-0.13,0.90,21537708
-1.37,-0.71,0.03,-0.16,0.89,21541670
-1.42,-0.71,0.02,-0.18,0.90,21545615
-1.46,-0.71,0.00,-0.17,0.90,21549572
-1.50,-0.70,-0.01,-0.12,0.89,21553519
-1.50,-0.69,-0.03,-0.05,0.89,21557468
-1.48,-0.67,-0.04,0.03,0.88,21561422
-1.44,-0.65,-0.04,0.09,0.88,21565374
-1.40,-0.64,-0.04,0.11,0.87,21569323
-1.35,-0.63,-0.03,0.12,0.89,21573273
-1.29,-0.62,-0.02,0.14,0.89,21577229
-1.23,-0.62,0.00,0.17,0.89,21581184
-1.17,-0.62,0.02,0.17,0.88,21585129
-1.11,-0.63,0.04,0.14,0.89,21589085
-1.08,-0.64,0.03,0.09,0.89,21593029
-1.08,-0.64,0.02,0.00,0.89,21596980
-1.11,-0.65,0.02,-0.09,0.90,21600924
-1.16,-0.65,0.02,-0.16,0.91,21604875
-1.21,-0.66,0.03,-0.18,0.91,21608833
-1.25,-0.67,0.04,-0.14,0.90,21612773
-1.28,-0.68,0.04,-0.11,0.89,21616738
-1.32,-0.69,0.04,-0.14,0.90,21620682
-1.36,-0.69,0.03,-0.16,0.89,21624630
-1.42,-0.69,0.01,-0.18,0.90,21628591
-1.46,-0.69,-0.00,-0.16,0.89,21632532
-1.48,-0.68,-0.02,-0.10,0.89,21636487
-1.48,-0.67,-0.03,-0.03,0.89,21640433
-1.46,-0.65,-0.03,0.04,0.88,21644380
-1.42,-0.64,-0.03,0.09,0.88,21648338
-1.37,-0.63,-0.02,0.11,0.88,21652285
-1.32,-0.62,-0.01,0.13,0.89,21656243
-1.26,-0.62,0.00,0.16,0.89,21660185
-1.20,-0.62,0.02,0.16,0.89,21664136
-1.14,-0.63,0.04,0.16,0.88,21668088
-1.09,-0.65,0.05,0.13,0.89,21672041
-1.07,-0.65,0.04,0.07,0.89,21675997
-1.07,-0.66,0.03,-0.02,0.90,21679931
-1.11,-0.67,0.02,-0.12,0.90,21683885
-1.16,-0.67,0.03,-0.17,0.91,21687827
-1.21,-0.68,0.04,-0.17,0.91,21691781
-1.25,-0.70,0.05,-0.13,0.90,21695732
-1.28,-0.71,0.05,-0.11,0.89,21699680
-1.33,-0.71,0.03,-0.15,0.90,21703635
-1.38,-0.72,0.02,-0.17,0.90,21707580
-1.43,-0.71,0.01,-0.18,0.90,21711524
-1.46,-0.71,-0.01,-0.14,0.90,21715479
-1.48,-0.70,-0.02,-0.08,0.90,21719418
-1.47,-0.68,-0.02,-0.00,0.89,21723370
-1.44,-0.67,-0.03,0.06,0.88,21727306
-1.40,-0.66,-0.03,0.10,0.88,21731248
-1.35,-0.64,-0.03,0.12,0.88,21735207
-1.29,-0.63,-0.02,0.14,0.89,21739156
-1.23,-0.63,-0.00,0.16,0.89,21743116
-1.17,-0.63,0.02,0.16,0.89,21747065
-1.12,-0.64,0.03,0.15,0.88,21751020
-1.08,-0.65,0.04,0.10,0.89,21754974
-1.07,-0.66,0.03,0.03,0.89,21758917
-1.08,-0.66,0.02,-0.05,0.90,21762868
-1.13,-0.66,0.02,-0.14,0.91,21766817
-1.18,-0.67,0.02,-0.17,0.91,21770778
-1.22,-0.68,0.03,-0.15,0.91,21774731
-1.26,-0.69,0.04,-0.12,0.90,21778672
-1.29,-0.70,0.04,-0.12,0.90,21782624
-1.34,-0.70,0.03,-0.16,0.89,21786575
-1.39,-0.70,0.02,-0.18,0.90,21790527
-1.43,-0.70,0.00,-0.17,0.90,21794474
-1.46,-0.69,-0.02,-0.12,0.89,21798423
-1.47,-0.68,-0.03,-0.05,0.89,21802384
-1.45,-0.66,-0.04,0.02,0.88,21806328
-1.42,-0.64,-0.04,0.08,0.88,21810278
-1.37,-0.63,-0.03,0.11,0.88,21814223
-1.32,-0.62,-0.02,0.12,0.89,21818177
-1.26,-0.61,-0.00,0.15,0.89,21822138
-1.20,-0.62,0.01,0.16,0.89,21826084
-1.14,-0.63,0.03,0.16,0.88,21830049
-1.10,-0.64,0.04,0.12,0.89,21833993
-1.07,-0.64,0.03,0.06,0.90,21837933
-1.08,-0.65,0.02,-0.02,0.89,21841890
-1.10,-0.65,0.02,-0.09,0.90,21845822
-1.15,-0.66,0.03,-0.15,0.91,21849781
-1.20,-0.67,0.04,-0.17,0.91,21853727
-1.24,-0.68,0.05,-0.14,0.90,21857678
-1.27,-0.70,0.05,-0.11,0.90,21861628
-1.31,-0.70,0.04,-0.14,0.90,21865570
-1.36,-0.71,0.03,-0.17,0.89,21869529
-1.41,-0.71,0.01,-0.18,0.90,21873476
-1.45,-0.70,-0.01,-0.15,0.89,21877428
-1.48,-0.69,-0.02,-0.10,0.89,21881385
-1.48,-0.68,-0.03,-0.03,0.89,21885327
-1.45,-0.66,-0.03,0.04,0.88,21889282
-1.41,-0.65,-0.03,0.10,0.88,21893229
-1.36,-0.64,-0.02,0.12,0.88,21897183
-1.31,-0.63,-0.01,0.13,0.89,21901138
-1.25,-0.63,0.00,0.16,0.89,21905081
-1.19,-0.63,0.02,0.16,0.89,21909042
-1.13,-0.64,0.04,0.15,0.88,21912990
-1.09,-0.65,0.04,0.10,0.89,21916943
-1.08,-0.66,0.03,0.03,0.89,21920888
-1.10,-0.66,0.02,-0.06,0.89,21924838
-1.14,-0.67,0.02,-0.13,0.91,21928794
-1.19,-0.67,0.03,-0.17,0.90,21932736
-1.24,-0.68,0.04,-0.16,0.90,21936693
-1.27,-0.69,0.04,-0.12,0.90,21940630
-1.30,-0.71,0.04,-0.12,0.89,21944577
-1.35,-0.71,0.03,-0.16,0.90,21948536
-1.40,-0.71,0.02,-0.18,0.90,21952476
-1.45,-0.71,0.00,-0.18,0.90,21956428
-1.49,-0.70,-0.01,-0.14,0.89,21960377
-1.50,-0.69,-0.02,-0.08,0.89,21964322
-1.49,-0.68,-0.03,-0.00,0.89,21968269
-1.46,-0.66,-0.03,0.07,0.88,21972214
-1.41,-0.65,-0.03,0.11,0.87,21976169
-1.36,-0.64,-0.03,0.13,0.88,21980112
-1.30,-0.63,-0.01,0.15,0.89,21984059
-1.23,-0.63,0.00,0.17,0.89,21988019
-1.17,-0.63,0.02,0.17,0.89,21991963
-1.12,-0.64,0.04,0.14,0.89,21995917
-1.09,-0.65,0.04,0.08,0.89,21999857
-1.09,-0.65,0.03,-0.00,0.89,22003809
-1.12,-0.66,0.02,-0.10,0.90,22007749
-1.17,-0.66,0.02,-0.16,0.91,22011707
-1.22,-0.67,0.04,-0.17,0.91,22015658
-1.26,-0.69,0.04,-0.14,0.91,22019605
-1.29,-0.70,0.05,-0.11,0.90,22023558
-1.32,-0.71,0.04,-0.13,0.90,22027501
-1.37,-0.71,0.03,-0.16,0.90,22031453
-1.42,-0.71,0.02,-0.18,0.90,22035408
-1.46,-0.71,-0.00,-0.17,0.90,22039350
-1.49,-0.70,-0.01,-0.12,0.89,22043307
-1.50,-0.69,-0.02,-0.05,0.89,22047249
-1.48,-0.68,-0.03,0.03,0.88,22051196
-1.44,-0.66,-0.03,0.09,0.88,22055152
-1.39,-0.65,-0.03,0.12,0.87,22059098
-1.34,-0.64,-0.02,0.13,0.88,22063056
-1.28,-0.63,-0.01,0.16,0.88,22067005
-1.22,-0.64,0.01,0.17,0.89,22070955
-1.16,-0.64,0.03,0.16,0.88,22074918
-1.11,-0.65,0.04,0.12,0.89,22078867
-1.09,-0.66,0.04,0.06,0.89,22082821
-1.09,-0.67,0.03,-0.03,0.89,22086764
-1.13,-0.67,0.02,-0.12,0.90,22090716
-1.18,-0.68,0.03,-0.17,0.91,22094674
-1.23,-0.69,0.04,-0.17,0.91,22098632
-1.27,-0.70,0.05,-0.13,0.90,22102586
-1.30,-0.71,0.05,-0.11,0.90,22106529
-1.34,-0.72,0.03,-0.15,0.90,22110485
-1.39,-0.72,0.02,-0.17,0.90,22114433
-1.44,-0.72,0.01,-0.18,0.90,22118392
-1.48,-0.71,-0.01,-0.15,0.90,22122348
-1.50,-0.70,-0.02,-0.10,0.89,22126283
-1.50,-0.69,-0.03,-0.02,0.89,22130232
-1.47,-0.67,-0.04,0.05,0.88,22134181
-1.43,-0.66,-0.03,0.10,0.88,22138120
-1.37,-0.64,-0.03,0.14,0.88,22142080
-1.31,-0.64,-0.01,0.15,0.89,22146032
-1.25,-0.63,0.00,0.18,0.89,22149985
-1.18,-0.64,0.02,0.17,0.89,22153936
-1.13,-0.65,0.03,0.15,0.89,22157889
-1.09,-0.65,0.04,0.10,0.89,22161838
-1.08,-0.66,0.03,0.02,0.90,22165771
-1.11,-0.66,0.02,-0.07,0.90,22169722
-1.15,-0.67,0.02,-0.15,0.91,22173670
-1.20,-0.68,0.03,-0.17,0.91,22177620
-1.24,-0.69,0.04,-0.14,0.91,22181575
-1.27,-0.70,0.05,-0.10,0.90,22185513
-1.30,-0.71,0.04,-0.11,0.90,22189463
-1.34,-0.71,0.03,-0.15,0.89,22193406
-1.39,-0.72,0.02,-0.18,0.90,22197356
-1.44,-0.71,-0.00,-0.17,0.90,22201305
-1.47,-0.70,-0.02,-0.13,0.89,22205253
-1.49,-0.68,-0.04,-0.07,0.89,22209207
-1.48,-0.66,-0.04,-0.02,0.89,22213151
-1.45,-0.65,-0.04,0.06,0.88,22217100
-1.41,-0.63,-0.03,0.11,0.87,22221048
-1.35,-0.62,-0.02,0.14,0.88,22224995
-1.29,-0.62,-0.00,0.16,0.89,22228947
-1.22,-0.62,0.01,0.18,0.89,22232900
-1.16,-0.63,0.03,0.17,0.89,22236848
-1.11,-0.64,0.04,0.14,0.89,22240801
-1.08,-0.65,0.04,0.08,0.89,22244749
-1.08,-0.65,0.03,-0.01,0.89,22248700
-1.11,-0.66,0.02,-0.10,0.90,22252641
-1.16,-0.67,0.02,-0.17,0.91,22256599
-1.21,-0.68,0.04,-0.17,0.91,22260553
-1.25,-0.69,0.05,-0.12,0.90,22264499
