Roll Angle, Pitch Angle, AccX, AccY, AccZ, Timer
-0.38,-0.26,0.01,-0.02,0.89,11342836
-0.59,-0.39,0.01,-0.02,0.89,11346781
-0.72,-0.47,0.01,-0.02,0.89,11350728
-0.81,-0.54,0.01,-0.02,0.89,11354670
-0.88,-0.59,0.01,-0.02,0.89,11358616
-0.93,-0.62,0.01,-0.02,0.89,11362573
-0.97,-0.65,0.01,-0.02,0.89,11366512
-1.01,-0.67,0.01,-0.02,0.89,11370464
-1.04,-0.68,0.01,-0.02,0.89,11374407
-1.07,-0.68,0.01,-0.02,0.89,11378354
-1.09,-0.69,0.01,-0.02,0.89,11382312
-1.11,-0.70,0.01,-0.02,0.89,11386253
-1.12,-0.71,0.01,-0.02,0.89,11390208
-1.14,-0.71,0.01,-0.02,0.89,11394153
-1.16,-0.72,0.01,-0.02,0.89,11398108
-1.17,-0.72,0.01,-0.02,0.89,11402069
-1.18,-0.73,0.01,-0.02,0.89,11406015
-1.18,-0.73,0.01,-0.02,0.89,11409971
-1.19,-0.73,0.01,-0.02,0.89,11413910
-1.19,-0.74,0.01,-0.02,0.89,11417867
-1.19,-0.74,0.01,-0.02,0.89,11421826
-1.20,-0.74,0.01,-0.02,0.89,11425766
-1.20,-0.74,0.01,-0.02,0.89,11429719
-1.20,-0.75,0.01,-0.02,0.89,11433671
-1.21,-0.75,0.01,-0.02,0.89,11437616
-1.21,-0.75,0.01,-0.02,0.89,11441572
-1.21,-0.76,0.01,-0.02,0.89,11445513
-1.21,-0.76,0.01,-0.02,0.89,11449473
-1.22,-0.76,0.01,-0.02,0.89,11453421
-1.22,-0.77,0.01,-0.02,0.89,11457373
-1.22,-0.77,0.01,-0.02,0.89,11461329
-1.23,-0.77,0.01,-0.02,0.89,11465275
-1.23,-0.77,0.01,-0.02,0.89,11469236
-1.23,-0.78,0.01,-0.02,0.89,11473188
-1.23,-0.78,0.01,-0.02,0.89,11477150
-1.23,-0.78,0.01,-0.02,0.89,11481097
-1.23,-0.78,0.01,-0.02,0.89,11485053
-1.24,-0.78,0.01,-0.02,0.89,11489014
-1.24,-0.78,0.01,-0.02,0.89,11492959
-1.24,-0.78,0.01,-0.02,0.89,11496915
-1.24,-0.78,0.01,-0.02,0.89,11500857
-1.25,-0.78,0.01,-0.02,0.89,11504807
-1.25,-0.78,0.01,-0.02,0.89,11508765
-1.25,-0.78,0.01,-0.02,0.89,11512710
-1.25,-0.78,0.01,-0.02,0.89,11516661
-1.25,-0.78,0.01,-0.02,0.89,11520612
-1.25,-0.78,0.01,-0.02,0.89,11524562
-1.25,-0.79,0.01,-0.02,0.89,11528521
-1.25,-0.79,0.01,-0.02,0.89,11532463
-1.26,-0.79,0.01,-0.02,0.89,11536423
-1.26,-0.79,0.01,-0.02,0.89,11540369
-1.26,-0.79,0.01,-0.02,0.89,11544320
-1.26,-0.79,0.01,-0.02,0.89,11548277
-1.26,-0.79,0.01,-0.02,0.89,11552218
-1.26,-0.79,0.01,-0.02,0.89,11556177
-1.26,-0.79,0.01,-0.02,0.89,11560123
-1.26,-0.79,0.01,-0.02,0.89,11564080
-1.26,-0.79,0.01,-0.02,0.89,11568028
-1.27,-0.79,0.01,-0.02,0.89,11571970
-1.27,-0.79,0.01,-0.02,0.89,11575919
-1.27,-0.79,0.01,-0.02,0.89,11579868
-1.27,-0.79,0.01,-0.02,0.89,11583823
-1.27,-0.80,0.01,-0.02,0.89,11587776
-1.27,-0.80,0.01,-0.02,0.89,11591717
-1.27,-0.80,0.01,-0.02,0.89,11595673
-1.27,-0.80,0.01,-0.02,0.89,11599614
-1.27,-0.80,0.01,-0.02,0.89,11603564
-1.27,-0.80,0.01,-0.02,0.89,11607506
-1.27,-0.80,0.01,-0.02,0.89,11611455
-1.27,-0.80,0.01,-0.02,0.89,11615405
-1.27,-0.81,0.01,-0.02,0.89,11619354
-1.27,-0.81,0.01,-0.02,0.89,11623312
-1.27,-0.81,0.01,-0.02,0.89,11627264
-1.27,-0.81,0.01,-0.02,0.89,11631213
-1.27,-0.81,0.01,-0.02,0.89,11635171
-1.27,-0.81,0.01,-0.02,0.89,11639125
-1.27,-0.81,0.01,-0.02,0.89,11643091
-1.28,-0.81,0.01,-0.02,0.89,11647043
-1.28,-0.81,0.01,-0.02,0.89,11650996
-1.28,-0.81,0.01,-0.02,0.89,11654959
-1.28,-0.81,0.01,-0.02,0.89,11658909
-1.28,-0.81,0.01,-0.02,0.89,11662866
-1.28,-0.81,0.01,-0.02,0.89,11666811
-1.28,-0.81,0.01,-0.02,0.89,11670763
-1.28,-0.82,0.01,-0.02,0.89,11674723
-1.28,-0.82,0.01,-0.02,0.89,11678664
-1.28,-0.82,0.01,-0.02,0.89,11682630
-1.28,-0.82,0.01,-0.02,0.89,11686577
-1.28,-0.82,0.01,-0.02,0.89,11690520
-1.28,-0.82,0.01,-0.02,0.89,11694465
-1.28,-0.82,0.01,-0.02,0.89,11698419
-1.28,-0.82,0.01,-0.02,0.89,11702382
-1.28,-0.82,0.01,-0.02,0.89,11706333
-1.28,-0.82,0.01,-0.02,0.89,11710276
-1.28,-0.82,0.01,-0.02,0.89,11714222
-1.28,-0.82,0.01,-0.02,0.89,11718163
-1.28,-0.82,0.01,-0.02,0.89,11722127
-1.28,-0.82,0.01,-0.02,0.89,11726080
-1.28,-0.82,0.01,-0.02,0.89,11730040
-1.28,-0.82,0.01,-0.02,0.89,11733988
-1.28,-0.82,0.01,-0.02,0.89,11737946
-1.28,-0.82,0.01,-0.02,0.89,11741906
-1.28,-0.82,0.01,-0.02,0.89,11745855
-1.29,-0.82,0.01,-0.02,0.89,11749817
-1.29,-0.82,0.01,-0.02,0.89,11753765
-1.29,-0.82,0.01,-0.02,0.89,11757717
-1.29,-0.82,0.01,-0.02,0.89,11761678
-1.29,-0.82,0.01,-0.02,0.89,11765627
-1.29,-0.82,0.01,-0.02,0.89,11769580
-1.29,-0.82,0.01,-0.02,0.89,11773525
-1.29,-0.82,0.01,-0.02,0.89,11777483
-1.29,-0.82,0.01,-0.02,0.89,11781438
-1.29,-0.82,0.01,-0.02,0.89,11785391
-1.29,-0.82,0.01,-0.02,0.89,11789346
-1.29,-0.82,0.01,-0.02,0.89,11793292
-1.29,-0.82,0.01,-0.02,0.89,11797245
-1.29,-0.82,0.01,-0.02,0.89,11801200
-1.29,-0.82,0.01,-0.02,0.89,11805149
-1.29,-0.82,0.01,-0.02,0.89,11809115
-1.29,-0.82,0.01,-0.02,0.89,11813067
-1.29,-0.82,0.01,-0.02,0.89,11817022
-1.29,-0.82,0.01,-0.02,0.89,11820981
-1.29,-0.82,0.01,-0.02,0.89,11824929
-1.29,-0.82,0.01,-0.02,0.89,11828880
-1.29,-0.82,0.01,-0.02,0.89,11832819
-1.29,-0.82,0.01,-0.02,0.89,11836767
-1.29,-0.82,0.01,-0.02,0.89,11840723
-1.29,-0.82,0.01,-0.02,0.89,11844670
-1.30,-0.82,0.01,-0.02,0.89,11848630
-1.30,-0.82,0.01,-0.02,0.89,11852574
-1.30,-0.82,0.01,-0.02,0.89,11856527
-1.30,-0.82,0.01,-0.02,0.89,11860466
-1.30,-0.82,0.01,-0.02,0.89,11864413
-1.30,-0.82,0.01,-0.02,0.89,11868360
-1.30,-0.82,0.01,-0.02,0.89,11872304
-1.30,-0.82,0.01,-0.02,0.89,11876257
-1.30,-0.82,0.01,-0.02,0.89,11880203
-1.30,-0.82,0.01,-0.02,0.89,11884157
-1.30,-0.82,0.01,-0.02,0.89,11888113
-1.30,-0.82,0.01,-0.02,0.89,11892054
-1.30,-0.82,0.01,-0.02,0.89,11896014
-1.30,-0.82,0.01,-0.02,0.89,11899954
-1.30,-0.82,0.01,-0.02,0.89,11903897
-1.30,-0.82,0.01,-0.02,0.89,11907847
-1.29,-0.82,0.01,-0.02,0.89,11911791
-1.29,-0.82,0.01,-0.02,0.89,11915745
-1.29,-0.82,0.01,-0.02,0.89,11919690
-1.29,-0.82,0.01,-0.02,0.89,11923643
-1.29,-0.82,0.01,-0.02,0.89,11927596
-1.29,-0.82,0.01,-0.02,0.89,11931542
-1.29,-0.82,0.01,-0.02,0.89,11935499
-1.29,-0.82,0.01,-0.02,0.89,11939444
-1.30,-0.83,0.01,-0.02,0.89,11943391
-1.30,-0.83,0.01,-0.02,0.89,11947347
-1.30,-0.83,0.01,-0.02,0.89,11951290
-1.30,-0.83,0.01,-0.02,0.89,11955244
-1.30,-0.83,0.01,-0.02,0.89,11959188
-1.30,-0.83,0.01,-0.02,0.89,11963139
-1.30,-0.83,0.01,-0.02,0.89,11967094
-1.30,-0.83,0.01,-0.02,0.89,11971042
-1.30,-0.83,0.01,-0.02,0.89,11974994
-1.30,-0.83,0.01,-0.02,0.89,11978939
-1.30,-0.83,0.01,-0.02,0.89,11982897
-1.30,-0.83,0.01,-0.02,0.89,11986836
-1.30,-0.83,0.01,-0.02,0.89,11990787
-1.30,-0.83,0.01,-0.02,0.89,11994742
-1.30,-0.83,0.01,-0.02,0.89,11998691
-1.30,-0.83,0.01,-0.02,0.89,12002648
-1.30,-0.83,0.01,-0.02,0.89,12006593
-1.30,-0.83,0.02,-0.02,0.89,12010542
-1.30,-0.83,0.01,-0.02,0.89,12014494
-1.30,-0.83,0.01,-0.02,0.89,12018437
-1.30,-0.83,0.01,-0.02,0.89,12022396
-1.30,-0.83,0.01,-0.02,0.89,12026341
-1.30,-0.83,0.01,-0.02,0.89,12030286
-1.30,-0.83,0.01,-0.02,0.89,12034233
-1.30,-0.83,0.01,-0.02,0.89,12038180
-1.30,-0.83,0.01,-0.02,0.89,12042134
-1.30,-0.83,0.01,-0.02,0.89,12046083
-1.30,-0.83,0.01,-0.02,0.89,12050035
-1.30,-0.83,0.01,-0.02,0.89,12053988
-1.31,-0.84,0.01,-0.02,0.89,12057937
-1.31,-0.83,0.01,-0.02,0.89,12061901
-1.31,-0.84,0.01,-0.02,0.89,12065847
-1.31,-0.84,0.01,-0.02,0.89,12069799
-1.31,-0.83,0.01,-0.02,0.89,12073752
-1.31,-0.83,0.01,-0.02,0.89,12077703
-1.31,-0.83,0.01,-0.02,0.89,12081662
-1.31,-0.83,0.01,-0.02,0.89,12085605
-1.31,-0.83,0.01,-0.02,0.89,12089555
-1.31,-0.83,0.01,-0.02,0.89,12093505
-1.31,-0.83,0.01,-0.02,0.89,12097454
-1.31,-0.83,0.01,-0.02,0.89,12101416
-1.31,-0.83,0.01,-0.02,0.89,12105364
-1.31,-0.83,0.01,-0.02,0.89,12109321
-1.31,-0.83,0.01,-0.02,0.89,12113264
-1.31,-0.83,0.01,-0.02,0.89,12117217
-1.31,-0.83,0.01,-0.02,0.89,12121172
-1.31,-0.83,0.01,-0.02,0.89,12125127
-1.31,-0.83,0.01,-0.02,0.89,12129090
-1.31,-0.83,0.01,-0.02,0.89,12133038
-1.31,-0.83,0.01,-0.02,0.89,12136985
-1.31,-0.83,0.01,-0.02,0.89,12140942
-1.31,-0.83,0.01,-0.02,0.89,12144890
-1.31,-0.83,0.01,-0.02,0.89,12148852
-1.31,-0.83,0.01,-0.02,0.89,12152804
-1.31,-0.83,0.01,-0.02,0.89,12156754
-1.31,-0.83,0.01,-0.02,0.89,12160717
-1.31,-0.83,0.01,-0.02,0.89,12164655
-1.31,-0.83,0.01,-0.02,0.89,12168610
-1.31,-0.83,0.01,-0.02,0.89,12172555
-1.31,-0.84,0.01,-0.02,0.89,12176507
-1.31,-0.84,0.01,-0.02,0.89,12180465
-1.31,-0.84,0.01,-0.02,0.89,12184411
-1.31,-0.84,0.01,-0.02,0.89,12188373
-1.31,-0.84,0.01,-0.02,0.89,12192325
-1.31,-0.84,0.01,-0.02,0.89,12196274
-1.31,-0.84,0.01,-0.02,0.89,12200232
-1.31,-0.84,0.01,-0.02,0.89,12204180
-1.31,-0.84,0.01,-0.02,0.89,12208142
-1.31,-0.84,0.01,-0.02,0.89,12212091
-1.31,-0.84,0.01,-0.02,0.89,12216043
-1.31,-0.84,0.01,-0.02,0.89,12219993
-1.31,-0.84,0.01,-0.02,0.89,12223948
-1.31,-0.84,0.01,-0.02,0.89,12227907
-1.31,-0.84,0.01,-0.02,0.89,12231854
-1.31,-0.84,0.01,-0.02,0.89,12235813
-1.31,-0.84,0.01,-0.02,0.89,12239768
-1.31,-0.84,0.01,-0.02,0.89,12243718
-1.31,-0.84,0.01,-0.02,0.89,12247675
-1.31,-0.84,0.01,-0.02,0.89,12251620
-1.31,-0.84,0.01,-0.02,0.89,12255579
-1.31,-0.84,0.01,-0.02,0.89,12259523
-1.31,-0.84,0.01,-0.02,0.89,12263474
-1.31,-0.84,0.01,-0.02,0.89,12267437
-1.31,-0.84,0.01,-0.02,0.89,12271388
-1.31,-0.84,0.01,-0.02,0.89,12275341
-1.31,-0.83,0.01,-0.02,0.89,12279289
-1.31,-0.83,0.01,-0.02,0.89,12283239
-1.31,-0.83,0.01,-0.02,0.89,12287196
-1.31,-0.83,0.01,-0.02,0.89,12291147
-1.31,-0.83,0.01,-0.02,0.89,12295108
-1.31,-0.83,0.01,-0.02,0.89,12299057
-1.31,-0.83,0.01,-0.02,0.89,12303005
-1.31,-0.83,0.01,-0.02,0.89,12306961
-1.31,-0.83,0.01,-0.02,0.89,12310907
-1.31,-0.83,0.01,-0.02,0.89,12314867
-1.31,-0.83,0.01,-0.02,0.89,12318815
-1.31,-0.83,0.01,-0.02,0.89,12322763
-1.31,-0.83,0.01,-0.02,0.89,12326715
-1.31,-0.83,0.01,-0.02,0.89,12330661
-1.31,-0.83,0.01,-0.02,0.89,12334622
-1.31,-0.83,0.01,-0.02,0.89,12338566
-1.31,-0.83,0.01,-0.02,0.89,12342516
-1.31,-0.83,0.01,-0.02,0.89,12346467
-1.31,-0.83,0.01,-0.02,0.89,12350412
-1.31,-0.83,0.01,-0.02,0.89,12354373
-1.31,-0.83,0.01,-0.02,0.89,12358318
-1.31,-0.83,0.01,-0.02,0.89,12362276
-1.31,-0.83,0.01,-0.02,0.89,12366220
-1.31,-0.83,0.01,-0.02,0.89,12370168
-1.32,-0.83,0.01,-0.02,0.89,12374122
-1.32,-0.83,0.01,-0.02,0.89,12378070
-1.32,-0.83,0.01,-0.02,0.89,12382036
-1.32,-0.83,0.01,-0.02,0.89,12385980
-1.32,-0.83,0.01,-0.02,0.89,12389938
-1.32,-0.83,0.01,-0.02,0.89,12393894
-1.31,-0.84,0.01,-0.02,0.89,12397836
-1.31,-0.84,0.02,-0.02,0.89,12401789
-1.31,-0.84,0.01,-0.02,0.89,12405733
-1.32,-0.84,0.01,-0.02,0.89,12409686
-1.32,-0.84,0.01,-0.02,0.89,12413638
-1.32,-0.84,0.01,-0.02,0.89,12417579
-1.32,-0.84,0.01,-0.02,0.89,12421534
-1.32,-0.84,0.01,-0.02,0.89,12425485
-1.32,-0.84,0.01,-0.02,0.89,12429440
-1.32,-0.84,0.01,-0.02,0.89,12433398
-1.32,-0.84,0.01,-0.02,0.89,12437344
-1.32,-0.84,0.01,-0.02,0.89,12441301
-1.32,-0.84,0.01,-0.02,0.89,12445249
-1.32,-0.84,0.01,-0.02,0.89,12449195
-1.32,-0.84,0.01,-0.02,0.89,12453143
-1.32,-0.84,0.01,-0.02,0.89,12457104
-1.32,-0.84,0.01,-0.02,0.89,12461058
-1.32,-0.84,0.01,-0.02,0.89,12465007
-1.32,-0.84,0.01,-0.02,0.89,12468960
-1.32,-0.84,0.01,-0.02,0.89,12472908
-1.32,-0.84,0.01,-0.02,0.89,12476850
-1.31,-0.84,0.01,-0.02,0.89,12480816
-1.31,-0.84,0.01,-0.02,0.89,12484759
-1.31,-0.84,0.01,-0.02,0.89,12488716
-1.31,-0.84,0.01,-0.02,0.89,12492659
-1.31,-0.84,0.01,-0.02,0.89,12496610
-1.31,-0.84,0.01,-0.02,0.89,12500566
-1.31,-0.84,0.01,-0.02,0.89,12504513
-1.31,-0.84,0.01,-0.02,0.89,12508466
-1.31,-0.84,0.01,-0.02,0.89,12512409
-1.31,-0.84,0.01,-0.02,0.89,12516361
-1.31,-0.84,0.01,-0.02,0.89,12520312
-1.31,-0.84,0.01,-0.02,0.89,12524256
-1.31,-0.84,0.01,-0.02,0.89,12528214
-1.31,-0.84,0.01,-0.02,0.89,12532171
-1.32,-0.84,0.01,-0.02,0.89,12536124
-1.32,-0.84,0.01,-0.02,0.89,12540078
-1.32,-0.84,0.01,-0.02,0.89,12544034
-1.32,-0.84,0.01,-0.02,0.89,12547989
-1.32,-0.84,0.01,-0.02,0.89,12551938
-1.32,-0.84,0.01,-0.02,0.89,12555892
-1.32,-0.84,0.01,-0.02,0.89,12559856
-1.31,-0.84,0.01,-0.02,0.89,12563797
-1.31,-0.84,0.01,-0.02,0.89,12567758
-1.31,-0.84,0.01,-0.02,0.89,12571706
-1.31,-0.84,0.01,-0.02,0.89,12575662
-1.31,-0.84,0.01,-0.02,0.89,12579608
-1.31,-0.85,0.01,-0.02,0.89,12583560
-1.31,-0.85,0.01,-0.02,0.89,12587521
-1.31,-0.85,0.01,-0.02,0.89,12591468
-1.31,-0.85,0.01,-0.02,0.89,12595416
-1.31,-0.85,0.01,-0.02,0.89,12599360
-1.31,-0.85,0.01,-0.02,0.89,12603302
-1.31,-0.85,0.01,-0.02,0.89,12607263
-1.31,-0.85,0.01,-0.02,0.89,12611210
-1.31,-0.85,0.01,-0.02,0.89,12615174
-1.31,-0.85,0.01,-0.02,0.89,12619121
-1.31,-0.85,0.01,-0.02,0.89,12623076
-1.32,-0.85,0.01,-0.02,0.89,12627031
-1.32,-0.85,0.01,-0.02,0.89,12630979
-1.32,-0.85,0.01,-0.02,0.89,12634936
-1.32,-0.85,0.01,-0.02,0.89,12638883
-1.32,-0.85,0.01,-0.02,0.89,12642840
-1.32,-0.85,0.01,-0.02,0.89,12646800
-1.32,-0.85,0.01,-0.02,0.89,12650750
-1.32,-0.85,0.01,-0.02,0.89,12654704
-1.32,-0.84,0.01,-0.02,0.89,12658648
-1.32,-0.84,0.01,-0.02,0.89,12662597
-1.32,-0.84,0.01,-0.02,0.89,12666553
-1.32,-0.84,0.01,-0.02,0.89,12670498
-1.32,-0.84,0.01,-0.02,0.89,12674453
-1.32,-0.84,0.01,-0.02,0.89,12678405
-1.32,-0.84,0.01,-0.02,0.89,12682360
-1.32,-0.84,0.01,-0.02,0.89,12686313
-1.32,-0.84,0.01,-0.02,0.89,12690260
-1.32,-0.84,0.01,-0.02,0.89,12694221
-1.32,-0.85,0.01,-0.02,0.89,12698170
-1.32,-0.85,0.01,-0.02,0.89,12702125
-1.32,-0.85,0.01,-0.02,0.89,12706092
-1.32,-0.85,0.01,-0.02,0.89,12710044
-1.32,-0.85,0.01,-0.02,0.89,12714005
-1.32,-0.85,0.01,-0.02,0.89,12717956
-1.32,-0.85,0.01,-0.02,0.89,12721903
-1.32,-0.85,0.01,-0.02,0.89,12725854
-1.32,-0.85,0.01,-0.02,0.89,12729801
-1.32,-0.85,0.01,-0.02,0.89,12733759
-1.32,-0.85,0.01,-0.02,0.89,12737709
-1.32,-0.85,0.01,-0.02,0.89,12741670
-1.32,-0.85,0.01,-0.02,0.89,12745621
-1.32,-0.85,0.01,-0.02,0.89,12749567
-1.32,-0.85,0.01,-0.02,0.89,12753526
-1.32,-0.85,0.01,-0.02,0.89,12757472
-1.32,-0.85,0.01,-0.02,0.89,12761435
-1.32,-0.85,0.01,-0.02,0.89,12765383
-1.32,-0.85,0.01,-0.02,0.89,12769339
-1.32,-0.85,0.01,-0.02,0.89,12773293
-1.32,-0.85,0.01,-0.02,0.89,12777238
-1.32,-0.84,0.01,-0.02,0.89,12781190
-1.32,-0.84,0.01,-0.02,0.89,12785136
-1.32,-0.84,0.01,-0.02,0.89,12789094
-1.32,-0.84,0.01,-0.02,0.89,12793053
-1.32,-0.84,0.01,-0.02,0.89,12796999
-1.32,-0.84,0.01,-0.02,0.89,12800949
-1.32,-0.84,0.01,-0.02,0.89,12804896
-1.32,-0.84,0.01,-0.02,0.89,12808848
-1.32,-0.84,0.01,-0.02,0.89,12812811
-1.32,-0.84,0.01,-0.02,0.89,12816752
-1.32,-0.84,0.01,-0.02,0.89,12820706
-1.32,-0.84,0.01,-0.02,0.89,12824654
-1.32,-0.84,0.01,-0.02,0.89,12828601
-1.32,-0.84,0.01,-0.02,0.89,12832548
-1.32,-0.84,0.01,-0.02,0.89,12836504
-1.32,-0.84,0.01,-0.02,0.89,12840456
-1.32,-0.84,0.01,-0.02,0.89,12844405
-1.32,-0.84,0.01,-0.02,0.89,12848350
-1.32,-0.84,0.01,-0.02,0.89,12852297
-1.32,-0.84,0.01,-0.02,0.89,12856242
-1.32,-0.84,0.01,-0.02,0.89,12860201
-1.32,-0.84,0.01,-0.02,0.89,12864153
-1.32,-0.84,0.01,-0.02,0.89,12868120
-1.32,-0.84,0.01,-0.02,0.89,12872072
-1.32,-0.84,0.01,-0.02,0.89,12876018
-1.32,-0.84,0.01,-0.02,0.89,12879980
-1.32,-0.84,0.01,-0.02,0.89,12883936
-1.32,-0.84,0.01,-0.02,0.89,12887900
-1.32,-0.84,0.01,-0.02,0.89,12891851
-1.32,-0.84,0.01,-0.02,0.89,12895807
-1.32,-0.84,0.01,-0.02,0.89,12899769
-1.31,-0.84,0.01,-0.02,0.89,12903713
-1.31,-0.84,0.01,-0.02,0.89,12907675
-1.31,-0.84,0.01,-0.02,0.89,12911626
-1.31,-0.84,0.01,-0.02,0.89,12915585
-1.31,-0.84,0.01,-0.02,0.89,12919542
-1.31,-0.84,0.01,-0.02,0.89,12923492
-1.31,-0.84,0.01,-0.02,0.89,12927448
-1.31,-0.84,0.01,-0.02,0.89,12931393
-1.31,-0.84,0.01,-0.02,0.89,12935342
-1.31,-0.84,0.01,-0.02,0.89,12939301
-1.31,-0.84,0.01,-0.02,0.89,12943244
-1.31,-0.84,0.01,-0.02,0.89,12947199
-1.31,-0.84,0.01,-0.02,0.89,12951154
-1.31,-0.84,0.01,-0.02,0.89,12955110
-1.31,-0.84,0.01,-0.02,0.89,12959062
-1.31,-0.84,0.01,-0.02,0.89,12963008
-1.31,-0.84,0.01,-0.02,0.89,12966970
-1.31,-0.84,0.01,-0.02,0.89,12970921
-1.31,-0.84,0.01,-0.02,0.89,12974872
-1.31,-0.84,0.01,-0.02,0.89,12978826
-1.32,-0.84,0.01,-0.02,0.89,12982776
-1.32,-0.84,0.01,-0.02,0.89,12986734
-1.32,-0.84,0.01,-0.02,0.89,12990686
-1.32,-0.84,0.01,-0.02,0.89,12994642
-1.32,-0.84,0.01,-0.02,0.89,12998589
-1.32,-0.84,0.01,-0.02,0.89,13002539
-1.32,-0.84,0.02,-0.02,0.89,13006499
-1.32,-0.84,0.01,-0.02,0.89,13010440
-1.32,-0.84,0.01,-0.02,0.89,13014397
-1.31,-0.84,0.01,-0.02,0.89,13018348
-1.31,-0.84,0.01,-0.02,0.89,13022296
-1.31,-0.85,0.01,-0.02,0.89,13026251
-1.31,-0.85,0.01,-0.02,0.89,13030195
-1.31,-0.85,0.01,-0.02,0.89,13034159
-1.31,-0.85,0.01,-0.02,0.89,13038112
-1.31,-0.85,0.01,-0.02,0.89,13042062
-1.31,-0.85,0.01,-0.02,0.89,13046020
-1.31,-0.85,0.01,-0.02,0.89,13049966
-1.31,-0.85,0.01,-0.02,0.89,13053928
-1.31,-0.85,0.01,-0.02,0.89,13057876
-1.31,-0.85,0.01,-0.02,0.89,13061830
-1.31,-0.85,0.01,-0.02,0.89,13065793
-1.31,-0.85,0.01,-0.02,0.89,13069745
-1.31,-0.85,0.01,-0.02,0.89,13073706
-1.31,-0.85,0.01,-0.02,0.89,13077655
-1.31,-0.85,0.01,-0.02,0.89,13081608
-1.31,-0.85,0.01,-0.02,0.89,13085564
-1.31,-0.85,0.01,-0.02,0.89,13089511
-1.31,-0.85,0.01,-0.02,0.89,13093470
-1.31,-0.85,0.01,-0.02,0.89,13097414
-1.31,-0.85,0.01,-0.02,0.89,13101363
-1.31,-0.85,0.01,-0.02,0.89,13105314
-1.31,-0.85,0.01,-0.02,0.89,13109264
-1.31,-0.84,0.01,-0.02,0.89,13113223
-1.31,-0.84,0.01,-0.02,0.89,13117168
-1.31,-0.84,0.01,-0.02,0.89,13121121
-1.31,-0.84,0.01,-0.02,0.89,13125070
-1.31,-0.84,0.01,-0.02,0.89,13129023
-1.31,-0.84,0.01,-0.02,0.89,13132982
-1.31,-0.84,0.01,-0.02,0.89,13136935
-1.31,-0.84,0.01,-0.02,0.89,13140894
-1.31,-0.84,0.01,-0.02,0.89,13144843
-1.31,-0.84,0.01,-0.02,0.89,13148794
-1.31,-0.84,0.01,-0.02,0.89,13152755
-1.31,-0.85,0.01,-0.02,0.89,13156701
-1.31,-0.85,0.01,-0.02,0.89,13160659
-1.31,-0.85,0.01,-0.02,0.89,13164604
-1.31,-0.85,0.02,-0.02,0.89,13168555
-1.31,-0.85,0.01,-0.02,0.89,13172508
-1.31,-0.85,0.01,-0.02,0.89,13176452
-1.31,-0.85,0.01,-0.02,0.89,13180415
-1.32,-0.85,0.01,-0.02,0.89,13184358
-1.32,-0.85,0.01,-0.02,0.89,13188310
-1.32,-0.85,0.01,-0.02,0.89,13192267
-1.32,-0.85,0.01,-0.02,0.89,13196212
-1.32,-0.85,0.01,-0.02,0.89,13200175
-1.32,-0.85,0.01,-0.02,0.89,13204125
-1.32,-0.85,0.01,-0.02,0.89,13208085
-1.32,-0.84,0.01,-0.02,0.89,13212035
-1.32,-0.84,0.01,-0.02,0.89,13215980
-1.32,-0.84,0.01,-0.02,0.89,13219934
-1.32,-0.84,0.01,-0.02,0.89,13223879
-1.31,-0.84,0.01,-0.02,0.89,13227828
-1.31,-0.84,0.01,-0.02,0.89,13231775
-1.31,-0.84,0.01,-0.02,0.89,13235721
-1.31,-0.84,0.01,-0.02,0.89,13239678
-1.31,-0.84,0.01,-0.02,0.89,13243622
-1.31,-0.84,0.01,-0.02,0.89,13247579
-1.31,-0.84,0.01,-0.02,0.89,13251525
-1.31,-0.84,0.01,-0.02,0.89,13255480
-1.31,-0.84,0.01,-0.02,0.89,13259440
-1.31,-0.84,0.01,-0.02,0.89,13263385
-1.31,-0.84,0.01,-0.02,0.89,13267338
-1.31,-0.84,0.01,-0.02,0.89,13271286
-1.31,-0.84,0.01,-0.02,0.89,13275240
-1.31,-0.84,0.01,-0.02,0.89,13279196
-1.31,-0.84,0.01,-0.02,0.89,13283149
-1.31,-0.84,0.01,-0.02,0.89,13287110
-1.31,-0.84,0.01,-0.02,0.89,13291061
-1.31,-0.84,0.01,-0.02,0.89,13295015
-1.31,-0.84,0.01,-0.02,0.89,13298970
-1.31,-0.84,0.01,-0.02,0.89,13302911
-1.31,-0.85,0.01,-0.02,0.89,13306873
-1.31,-0.85,0.01,-0.02,0.89,13310815
-1.31,-0.85,0.01,-0.02,0.89,13314766
-1.31,-0.85,0.01,-0.02,0.89,13318727
-1.31,-0.85,0.01,-0.02,0.89,13322671
-1.31,-0.85,0.01,-0.02,0.89,13326632
-1.31,-0.85,0.01,-0.02,0.89,13330578
-1.31,-0.84,0.01,-0.02,0.89,13334526
-1.31,-0.84,0.01,-0.02,0.89,13338484
-1.31,-0.84,0.01,-0.02,0.89,13342426
-1.31,-0.84,0.01,-0.02,0.89,13346384
-1.31,-0.84,0.01,-0.02,0.89,13350327
-1.31,-0.84,0.01,-0.02,0.89,13354281
-1.31,-0.84,0.01,-0.02,0.89,13358236
-1.31,-0.84,0.01,-0.02,0.89,13362191
-1.31,-0.84,0.01,-0.02,0.89,13366156
-1.31,-0.84,0.01,-0.02,0.89,13370103
-1.31,-0.84,0.01,-0.02,0.89,13374067
-1.31,-0.84,0.01,-0.02,0.89,13378008
-1.31,-0.84,0.01,-0.02,0.89,13381961
-1.31,-0.84,0.01,-0.02,0.89,13385915
-1.31,-0.84,0.01,-0.02,0.89,13389868
-1.31,-0.84,0.01,-0.02,0.89,13393823
-1.31,-0.84,0.01,-0.02,0.89,13397769
-1.31,-0.84,0.01,-0.02,0.89,13401723
-1.31,-0.84,0.01,-0.02,0.89,13405681
-1.31,-0.84,0.01,-0.02,0.89,13409626
-1.31,-0.84,0.01,-0.02,0.89,13413585
-1.31,-0.84,0.01,-0.02,0.89,13417533
-1.31,-0.84,0.01,-0.02,0.89,13421488
-1.31,-0.84,0.01,-0.02,0.89,13425447
-1.31,-0.84,0.01,-0.02,0.89,13429387
-1.31,-0.84,0.01,-0.02,0.89,13433348
-1.31,-0.84,0.01,-0.02,0.89,13437296
-1.31,-0.84,0.01,-0.02,0.89,13441246
-1.31,-0.85,0.01,-0.02,0.89,13445206
-1.31,-0.85,0.01,-0.02,0.89,13449150
-1.31,-0.85,0.01,-0.02,0.89,13453114
-1.31,-0.85,0.01,-0.02,0.89,13457063
-1.31,-0.85,0.01,-0.02,0.89,13461014
-1.31,-0.85,0.01,-0.02,0.89,13464970
-1.31,-0.85,0.01,-0.02,0.89,13468919
-1.31,-0.85,0.01,-0.02,0.89,13472876
-1.31,-0.85,0.01,-0.02,0.89,13476823
-1.31,-0.85,0.01,-0.02,0.89,13480774
-1.31,-0.85,0.01,-0.02,0.89,13484725
-1.31,-0.85,0.01,-0.02,0.89,13488670
-1.31,-0.85,0.01,-0.02,0.89,13492630
-1.31,-0.85,0.01,-0.02,0.89,13496574
-1.31,-0.85,0.01,-0.02,0.89,13500528
-1.31,-0.85,0.01,-0.02,0.89,13504475
-1.31,-0.85,0.01,-0.02,0.89,13508428
-1.31,-0.85,0.01,-0.02,0.89,13512385
-1.31,-0.85,0.01,-0.02,0.89,13516332
-1.31,-0.85,0.01,-0.02,0.89,13520290
-1.31,-0.85,0.01,-0.02,0.89,13524240
-1.31,-0.85,0.01,-0.02,0.89,13528199
-1.31,-0.85,0.01,-0.02,0.89,13532154
-1.31,-0.85,0.01,-0.02,0.89,13536107
-1.31,-0.85,0.01,-0.02,0.89,13540070
-1.31,-0.85,0.01,-0.02,0.89,13544016
-1.31,-0.85,0.01,-0.02,0.89,13547967
-1.31,-0.85,0.01,-0.02,0.89,13551924
-1.31,-0.85,0.01,-0.02,0.89,13555870
-1.31,-0.85,0.01,-0.02,0.89,13559828
-1.31,-0.85,0.01,-0.02,0.89,13563777
-1.31,-0.85,0.01,-0.02,0.89,13567732
-1.31,-0.85,0.01,-0.02,0.89,13571689
-1.31,-0.85,0.01,-0.02,0.89,13575638
-1.31,-0.85,0.01,-0.02,0.89,13579602
-1.31,-0.85,0.01,-0.02,0.89,13583552
-1.31,-0.85,0.01,-0.02,0.89,13587503
-1.31,-0.85,0.01,-0.02,0.89,13591459
-1.31,-0.85,0.01,-0.02,0.89,13595399
-1.31,-0.85,0.01,-0.02,0.89,13599352
-1.31,-0.85,0.01,-0.02,0.89,13603297
-1.31,-0.85,0.01,-0.02,0.89,13607250
-1.31,-0.85,0.01,-0.02,0.89,13611207
-1.31,-0.85,0.01,-0.02,0.89,13615156
-1.31,-0.85,0.01,-0.02,0.89,13619114
-1.31,-0.85,0.01,-0.02,0.89,13623063
-1.31,-0.85,0.01,-0.02,0.89,13627021
-1.31,-0.85,0.01,-0.02,0.89,13630961
-1.31,-0.85,0.01,-0.02,0.89,13634909
-1.31,-0.85,0.01,-0.02,0.89,13638861
-1.31,-0.85,0.01,-0.02,0.89,13642808
-1.31,-0.85,0.01,-0.02,0.89,13646769
-1.31,-0.85,0.01,-0.02,0.89,13650711
-1.31,-0.85,0.01,-0.02,0.89,13654665
-1.31,-0.85,0.01,-0.02,0.89,13658627
-1.31,-0.85,0.01,-0.02,0.89,13662571
-1.31,-0.85,0.01,-0.02,0.89,13666529
-1.31,-0.85,0.01,-0.02,0.89,13670467
-1.31,-0.85,0.01,-0.02,0.89,13674423
-1.31,-0.85,0.01,-0.02,0.89,13678384
-1.31,-0.85,0.01,-0.02,0.89,13682331
-1.31,-0.85,0.01,-0.02,0.89,13686287
-1.31,-0.85,0.01,-0.02,0.89,13690232
-1.31,-0.85,0.01,-0.02,0.89,13694188
-1.31,-0.84,0.01,-0.02,0.89,13698147
-1.31,-0.84,0.01,-0.02,0.89,13702091
-1.31,-0.84,0.01,-0.02,0.89,13706046
-1.31,-0.84,0.01,-0.02,0.89,13709991
-1.31,-0.84,0.01,-0.02,0.89,13713940
-1.31,-0.84,0.01,-0.02,0.89,13717890
-1.31,-0.84,0.01,-0.02,0.89,13721844
-1.31,-0.84,0.01,-0.02,0.89,13725803
-1.31,-0.84,0.01,-0.02,0.89,13729753
-1.31,-0.84,0.01,-0.02,0.89,13733702
-1.31,-0.84,0.01,-0.02,0.89,13737657
-1.31,-0.84,0.01,-0.02,0.89,13741604
-1.31,-0.84,0.01,-0.02,0.89,13745565
-1.31,-0.84,0.01,-0.02,0.89,13749511
-1.31,-0.84,0.01,-0.02,0.89,13753464
-1.31,-0.84,0.01,-0.02,0.89,13757412
-1.31,-0.84,0.01,-0.02,0.89,13761364
-1.31,-0.85,0.01,-0.02,0.89,13765323
-1.31,-0.85,0.01,-0.02,0.89,13769262
-1.31,-0.85,0.01,-0.02,0.89,13773221
-1.31,-0.85,0.01,-0.02,0.89,13777171
-1.31,-0.85,0.01,-0.02,0.89,13781122
-1.31,-0.85,0.01,-0.02,0.89,13785086
-1.31,-0.85,0.01,-0.02,0.89,13789032
-1.31,-0.85,0.01,-0.02,0.89,13792990
-1.31,-0.85,0.01,-0.02,0.89,13796942
-1.31,-0.85,0.01,-0.02,0.89,13800895
-1.31,-0.85,0.01,-0.02,0.89,13804856
-1.31,-0.85,0.01,-0.02,0.89,13808805
-1.31,-0.85,0.01,-0.02,0.89,13812760
-1.31,-0.85,0.01,-0.02,0.89,13816706
-1.31,-0.85,0.01,-0.02,0.89,13820661
-1.31,-0.85,0.01,-0.02,0.89,13824615
-1.31,-0.85,0.01,-0.02,0.89,13828566
-1.31,-0.85,0.02,-0.02,0.89,13832525
-1.31,-0.85,0.02,-0.02,0.89,13836469
-1.31,-0.85,0.01,-0.02,0.89,13840415
-1.31,-0.85,0.01,-0.02,0.89,13844379
-1.31,-0.85,0.01,-0.02,0.89,13848326
-1.31,-0.85,0.01,-0.02,0.89,13852278
-1.31,-0.85,0.01,-0.02,0.89,13856224
-1.31,-0.85,0.01,-0.02,0.89,13860174
-1.31,-0.85,0.01,-0.02,0.89,13864128
-1.31,-0.85,0.01,-0.02,0.89,13868081
-1.31,-0.85,0.01,-0.02,0.89,13872040
-1.31,-0.85,0.01,-0.02,0.89,13875992
-1.31,-0.85,0.01,-0.02,0.89,13879951
-1.31,-0.85,0.01,-0.02,0.89,13883904
-1.31,-0.85,0.01,-0.02,0.89,13887850
-1.31,-0.85,0.01,-0.02,0.89,13891804
-1.31,-0.85,0.01,-0.02,0.89,13895749
-1.31,-0.85,0.01,-0.02,0.89,13899704
-1.31,-0.85,0.01,-0.02,0.89,13903652
-1.31,-0.85,0.01,-0.02,0.89,13907602
-1.31,-0.85,0.01,-0.02,0.89,13911564
-1.31,-0.85,0.01,-0.02,0.89,13915507
-1.31,-0.85,0.01,-0.02,0.89,13919467
-1.31,-0.85,0.01,-0.02,0.89,13923409
-1.31,-0.85,0.01,-0.02,0.89,13927366
-1.31,-0.85,0.01,-0.02,0.89,13931322
-1.31,-0.85,0.01,-0.02,0.89,13935266
-1.31,-0.85,0.01,-0.02,0.89,13939228
-1.31,-0.85,0.01,-0.02,0.89,13943168
-1.31,-0.85,0.01,-0.02,0.89,13947124
-1.31,-0.85,0.01,-0.02,0.89,13951085
-1.31,-0.85,0.01,-0.02,0.89,13955033
-1.31,-0.85,0.01,-0.02,0.89,13958992
-1.31,-0.85,0.01,-0.02,0.89,13962939
-1.31,-0.85,0.01,-0.02,0.89,13966885
-1.31,-0.85,0.01,-0.02,0.89,13970840
-1.31,-0.85,0.01,-0.02,0.89,13974789
-1.31,-0.85,0.01,-0.02,0.89,13978745
-1.31,-0.85,0.01,-0.02,0.89,13982693
-1.31,-0.85,0.01,-0.02,0.89,13986644
-1.31,-0.85,0.01,-0.02,0.89,13990596
-1.31,-0.85,0.01,-0.02,0.89,13994543
-1.31,-0.84,0.01,-0.02,0.89,13998499
-1.31,-0.84,0.01,-0.02,0.89,14002442
-1.31,-0.84,0.01,-0.02,0.89,14006401
-1.31,-0.84,0.01,-0.02,0.89,14010348
-1.31,-0.84,0.01,-0.02,0.89,14014293
-1.31,-0.84,0.01,-0.02,0.89,14018254
-1.31,-0.84,0.01,-0.02,0.89,14022207
-1.31,-0.84,0.01,-0.02,0.89,14026167
-1.31,-0.84,0.01,-0.02,0.89,14030111
-1.31,-0.84,0.01,-0.02,0.89,14034065
-1.31,-0.84,0.01,-0.02,0.89,14038023
-1.31,-0.84,0.01,-0.02,0.89,14041969
-1.31,-0.84,0.01,-0.02,0.89,14045926
-1.31,-0.84,0.01,-0.02,0.89,14049873
-1.31,-0.84,0.01,-0.02,0.89,14053826
-1.31,-0.84,0.01,-0.02,0.89,14057782
-1.31,-0.84,0.01,-0.02,0.89,14061727
-1.31,-0.84,0.01,-0.02,0.89,14065686
-1.31,-0.84,0.01,-0.02,0.89,14069632
-1.31,-0.84,0.01,-0.02,0.89,14073584
-1.31,-0.84,0.01,-0.02,0.89,14077540
-1.31,-0.84,0.01,-0.02,0.89,14081483
-1.31,-0.84,0.01,-0.02,0.89,14085438
-1.31,-0.84,0.01,-0.02,0.89,14089382
-1.31,-0.84,0.01,-0.02,0.89,14093333
-1.31,-0.84,0.01,-0.02,0.89,14097288
-1.31,-0.84,0.01,-0.02,0.89,14101236
-1.31,-0.84,0.01,-0.02,0.89,14105193
-1.31,-0.84,0.01,-0.02,0.89,14109137
-1.31,-0.84,0.01,-0.02,0.89,14113090
-1.31,-0.84,0.01,-0.02,0.89,14117038
-1.31,-0.84,0.01,-0.02,0.89,14120982
-1.31,-0.84,0.01,-0.02,0.89,14124941
-1.31,-0.85,0.01,-0.02,0.89,14128889
-1.31,-0.85,0.02,-0.02,0.89,14132847
-1.31,-0.85,0.02,-0.02,0.89,14136794
-1.31,-0.85,0.02,-0.02,0.89,14140746
-1.31,-0.85,0.01,-0.02,0.89,14144698
-1.31,-0.85,0.01,-0.02,0.89,14148645
-1.31,-0.85,0.01,-0.02,0.89,14152603
-1.31,-0.85,0.01,-0.02,0.89,14156557
-1.31,-0.85,0.02,-0.02,0.89,14160512
-1.31,-0.85,0.02,-0.02,0.89,14164477
-1.32,-0.85,0.01,-0.02,0.89,14168426
-1.32,-0.85,0.01,-0.02,0.89,14172382
-1.32,-0.85,0.01,-0.02,0.89,14176325
-1.32,-0.85,0.01,-0.02,0.89,14180278
-1.32,-0.85,0.01,-0.02,0.89,14184237
-1.32,-0.85,0.01,-0.02,0.89,14188184
-1.32,-0.85,0.01,-0.02,0.89,14192149
-1.32,-0.85,0.01,-0.02,0.89,14196098
-1.32,-0.85,0.01,-0.02,0.89,14200050
-1.32,-0.85,0.01,-0.02,0.89,14204007
-1.32,-0.85,0.01,-0.02,0.89,14207953
-1.32,-0.86,0.02,-0.02,0.89,14211908
-1.32,-0.86,0.01,-0.02,0.89,14215852
-1.32,-0.86,0.01,-0.02,0.89,14219805
-1.32,-0.86,0.01,-0.02,0.89,14223759
-1.32,-0.86,0.01,-0.02,0.89,14227707
-1.32,-0.86,0.01,-0.02,0.89,14231666
-1.32,-0.86,0.01,-0.02,0.89,14235611
-1.32,-0.86,0.01,-0.02,0.89,14239560
-1.32,-0.86,0.01,-0.02,0.89,14243513
-1.32,-0.86,0.01,-0.02,0.89,14247460
-1.32,-0.86,0.01,-0.02,0.89,14251420
-1.32,-0.86,0.01,-0.02,0.89,14255365
-1.32,-0.86,0.01,-0.02,0.89,14259322
-1.32,-0.86,0.01,-0.02,0.89,14263270
-1.32,-0.86,0.01,-0.02,0.89,14267220
-1.32,-0.86,0.01,-0.02,0.89,14271181
-1.32,-0.86,0.01,-0.02,0.89,14275130
-1.32,-0.86,0.01,-0.02,0.89,14279095
-1.32,-0.86,0.01,-0.02,0.89,14283045
-1.32,-0.86,0.01,-0.02,0.89,14287007
-1.32,-0.86,0.01,-0.02,0.89,14290968
-1.32,-0.86,0.01,-0.02,0.89,14294914
-1.32,-0.86,0.01,-0.02,0.89,14298872
-1.32,-0.86,0.01,-0.02,0.89,14302816
-1.32,-0.86,0.01,-0.02,0.89,14306767
-1.32,-0.86,0.01,-0.02,0.89,14310727
-1.32,-0.86,0.01,-0.02,0.89,14314679
-1.32,-0.86,0.01,-0.02,0.89,14318636
-1.32,-0.86,0.01,-0.02,0.89,14322582
-1.32,-0.86,0.01,-0.02,0.89,14326535
-1.32,-0.86,0.01,-0.02,0.89,14330490
-1.32,-0.86,0.01,-0.02,0.89,14334433
-1.32,-0.86,0.01,-0.02,0.89,14338392
-1.31,-0.86,0.01,-0.02,0.89,14342342
-1.31,-0.86,0.01,-0.02,0.89,14346291
-1.31,-0.86,0.01,-0.02,0.89,14350243
-1.31,-0.86,0.01,-0.02,0.89,14354195
-1.31,-0.86,0.01,-0.02,0.89,14358157
-1.31,-0.86,0.01,-0.02,0.89,14362100
-1.31,-0.86,0.01,-0.02,0.89,14366059
-1.31,-0.86,0.01,-0.02,0.89,14370013
-1.31,-0.86,0.01,-0.02,0.89,14373960
-1.31,-0.86,0.01,-0.02,0.89,14377921
-1.31,-0.86,0.01,-0.02,0.89,14381870
-1.31,-0.86,0.01,-0.02,0.89,14385826
-1.31,-0.86,0.01,-0.02,0.89,14389773
-1.31,-0.86,0.01,-0.02,0.89,14393724
-1.31,-0.86,0.01,-0.02,0.89,14397683
-1.31,-0.86,0.01,-0.02,0.89,14401630
-1.31,-0.86,0.01,-0.02,0.89,14405594
-1.31,-0.86,0.01,-0.02,0.89,14409539
-1.31,-0.86,0.01,-0.02,0.89,14413488
-1.31,-0.86,0.01,-0.02,0.89,14417447
-1.31,-0.86,0.01,-0.02,0.89,14421399
-1.31,-0.86,0.01,-0.02,0.89,14425354
-1.31,-0.86,0.01,-0.02,0.89,14429301
-1.31,-0.86,0.01,-0.02,0.89,14433255
-1.31,-0.86,0.01,-0.02,0.89,14437215
-1.31,-0.86,0.01,-0.02,0.89,14441171
-1.31,-0.86,0.01,-0.02,0.89,14445131
-1.31,-0.86,0.01,-0.02,0.89,14449081
-1.31,-0.86,0.01,-0.02,0.89,14453031
-1.31,-0.86,0.01,-0.02,0.89,14456987
-1.31,-0.86,0.01,-0.02,0.89,14460936
-1.31,-0.86,0.01,-0.02,0.89,14464890
-1.31,-0.86,0.01,-0.02,0.89,14468836
-1.31,-0.86,0.01,-0.02,0.89,14472791
-1.31,-0.86,0.01,-0.02,0.89,14476743
-1.31,-0.86,0.01,-0.02,0.89,14480689
-1.31,-0.86,0.01,-0.02,0.89,14484646
-1.31,-0.86,0.01,-0.02,0.89,14488593
-1.31,-0.86,0.01,-0.02,0.89,14492547
-1.31,-0.86,0.01,-0.02,0.89,14496497
-1.31,-0.86,0.01,-0.02,0.89,14500445
-1.31,-0.86,0.01,-0.02,0.89,14504396
-1.31,-0.86,0.01,-0.02,0.89,14508340
-1.31,-0.86,0.01,-0.02,0.89,14512295
-1.31,-0.86,0.01,-0.02,0.89,14516242
-1.31,-0.86,0.01,-0.02,0.89,14520200
-1.31,-0.86,0.01,-0.02,0.89,14524159
-1.31,-0.86,0.01,-0.02,0.89,14528102
-1.31,-0.86,0.01,-0.02,0.89,14532059
-1.31,-0.86,0.01,-0.02,0.89,14536009
-1.31,-0.86,0.01,-0.02,0.89,14539959
-1.31,-0.85,0.01,-0.02,0.89,14543914
-1.31,-0.85,0.01,-0.02,0.89,14547861
-1.31,-0.85,0.01,-0.02,0.89,14551815
-1.31,-0.85,0.01,-0.02,0.89,14555765
-1.31,-0.85,0.01,-0.02,0.89,14559721
-1.31,-0.85,0.01,-0.02,0.89,14563673
-1.31,-0.85,0.01,-0.02,0.89,14567617
-1.31,-0.85,0.01,-0.02,0.89,14571573
-1.31,-0.85,0.01,-0.02,0.89,14575521
-1.31,-0.85,0.01,-0.02,0.89,14579473
-1.31,-0.85,0.01,-0.02,0.89,14583425
-1.31,-0.85,0.01,-0.02,0.89,14587373
-1.31,-0.86,0.01,-0.02,0.89,14591334
-1.31,-0.86,0.01,-0.02,0.89,14595278
-1.31,-0.86,0.01,-0.02,0.89,14599223
-1.31,-0.85,0.01,-0.02,0.89,14603184
-1.31,-0.85,0.01,-0.02,0.89,14607137
-1.31,-0.85,0.01,-0.02,0.89,14611098
-1.31,-0.85,0.01,-0.02,0.89,14615044
-1.31,-0.86,0.01,-0.02,0.89,14618997
-1.31,-0.85,0.01,-0.02,0.89,14622951
-1.31,-0.85,0.01,-0.02,0.89,14626901
-1.31,-0.85,0.01,-0.02,0.89,14630862
-1.31,-0.85,0.01,-0.02,0.89,14634805
-1.31,-0.85,0.01,-0.02,0.89,14638766
-1.31,-0.85,0.01,-0.02,0.89,14642713
-1.31,-0.85,0.01,-0.02,0.89,14646662
-1.31,-0.85,0.01,-0.02,0.89,14650619
-1.31,-0.85,0.01,-0.02,0.89,14654557
-1.31,-0.85,0.01,-0.02,0.89,14658511
-1.31,-0.85,0.01,-0.02,0.89,14662459
-1.31,-0.85,0.01,-0.02,0.89,14666409
-1.31,-0.85,0.01,-0.02,0.89,14670371
-1.31,-0.85,0.01,-0.02,0.89,14674313
-1.31,-0.85,0.01,-0.02,0.89,14678270
-1.31,-0.85,0.01,-0.02,0.89,14682216
-1.31,-0.85,0.01,-0.02,0.89,14686172
-1.31,-0.85,0.01,-0.02,0.89,14690129
-1.31,-0.85,0.01,-0.02,0.89,14694084
-1.31,-0.85,0.01,-0.02,0.89,14698045
-1.31,-0.85,0.01,-0.02,0.89,14701994
-1.31,-0.85,0.01,-0.02,0.89,14705955
-1.31,-0.85,0.01,-0.02,0.89,14709913
-1.31,-0.85,0.01,-0.02,0.89,14713859
-1.31,-0.85,0.01,-0.02,0.89,14717816
-1.31,-0.85,0.01,-0.02,0.89,14721764
-1.31,-0.85,0.01,-0.02,0.89,14725721
-1.31,-0.85,0.01,-0.02,0.89,14729681
-1.31,-0.85,0.01,-0.02,0.89,14733625
-1.31,-0.85,0.01,-0.02,0.89,14737580
-1.31,-0.85,0.01,-0.02,0.89,14741527
-1.31,-0.85,0.01,-0.02,0.89,14745478
-1.31,-0.85,0.01,-0.02,0.89,14749430
-1.31,-0.85,0.01,-0.02,0.89,14753374
-1.31,-0.85,0.01,-0.02,0.89,14757334
-1.31,-0.85,0.01,-0.02,0.89,14761285
-1.31,-0.85,0.01,-0.02,0.89,14765241
-1.31,-0.85,0.01,-0.02,0.89,14769194
-1.31,-0.85,0.01,-0.02,0.89,14773147
-1.31,-0.85,0.01,-0.02,0.89,14777102
-1.31,-0.85,0.01,-0.02,0.89,14781047
-1.31,-0.85,0.01,-0.02,0.89,14785009
-1.31,-0.85,0.01,-0.02,0.89,14788953
-1.31,-0.85,0.01,-0.02,0.89,14792909
-1.31,-0.85,0.01,-0.02,0.89,14796863
-1.31,-0.85,0.01,-0.02,0.89,14800811
-1.31,-0.85,0.01,-0.02,0.89,14804768
-1.31,-0.85,0.01,-0.02,0.89,14808718
-1.31,-0.85,0.01,-0.02,0.89,14812675
-1.31,-0.85,0.01,-0.02,0.89,14816637
-1.31,-0.85,0.01,-0.02,0.89,14820585
-1.31,-0.85,0.01,-0.02,0.89,14824540
-1.31,-0.85,0.01,-0.02,0.89,14828485
-1.31,-0.85,0.01,-0.02,0.89,14832438
-1.31,-0.85,0.01,-0.02,0.89,14836394
-1.31,-0.85,0.01,-0.02,0.89,14840339
-1.31,-0.85,0.01,-0.02,0.89,14844297
-1.31,-0.85,0.01,-0.02,0.89,14848241
-1.31,-0.85,0.01,-0.02,0.89,14852201
-1.31,-0.85,0.01,-0.02,0.89,14856160
-1.31,-0.85,0.01,-0.02,0.89,14860106
-1.31,-0.85,0.01,-0.02,0.89,14864067
-1.31,-0.85,0.01,-0.02,0.89,14868012
-1.31,-0.85,0.01,-0.02,0.89,14871962
-1.31,-0.85,0.01,-0.02,0.89,14875908
-1.31,-0.85,0.01,-0.02,0.89,14879852
-1.31,-0.85,0.01,-0.02,0.89,14883810
-1.31,-0.85,0.01,-0.02,0.89,14887751
-1.31,-0.85,0.01,-0.02,0.89,14891705
-1.31,-0.85,0.01,-0.02,0.89,14895651
-1.31,-0.85,0.01,-0.02,0.89,14899600
-1.31,-0.85,0.01,-0.02,0.89,14903553
-1.31,-0.85,0.01,-0.02,0.89,14907500
-1.31,-0.85,0.01,-0.02,0.89,14911459
-1.31,-0.85,0.01,-0.02,0.89,14915409
-1.31,-0.85,0.01,-0.02,0.89,14919362
-1.31,-0.85,0.01,-0.02,0.89,14923321
-1.31,-0.85,0.01,-0.02,0.89,14927268
-1.31,-0.85,0.01,-0.02,0.89,14931228
-1.31,-0.85,0.01,-0.02,0.89,14935176
-1.31,-0.85,0.01,-0.02,0.89,14939129
-1.31,-0.85,0.01,-0.02,0.89,14943090
-1.31,-0.85,0.01,-0.02,0.89,14947035
-1.31,-0.85,0.01,-0.02,0.89,14950992
-1.31,-0.85,0.01,-0.02,0.89,14954936
-1.31,-0.85,0.01,-0.02,0.89,14958888
-1.31,-0.85,0.01,-0.02,0.89,14962846
-1.31,-0.85,0.01,-0.02,0.89,14966792
-1.31,-0.85,0.01,-0.02,0.89,14970744
-1.31,-0.85,0.01,-0.02,0.89,14974691
-1.31,-0.85,0.01,-0.02,0.89,14978637
-1.31,-0.85,0.01,-0.02,0.89,14982586
-1.31,-0.85,0.01,-0.02,0.89,14986537
-1.31,-0.85,0.02,-0.02,0.89,14990498
-1.31,-0.85,0.01,-0.02,0.89,14994443
-1.31,-0.85,0.01,-0.02,0.89,14998397
-1.31,-0.85,0.01,-0.02,0.89,15002344
-1.31,-0.85,0.01,-0.02,0.89,15006295
-1.31,-0.85,0.01,-0.02,0.89,15010250
-1.31,-0.85,0.01,-0.02,0.89,15014198
-1.31,-0.85,0.01,-0.02,0.89,15018158
-1.31,-0.86,0.01,-0.02,0.89,15022107
-1.31,-0.86,0.01,-0.02,0.89,15026061
-1.31,-0.86,0.01,-0.02,0.89,15030024
-1.31,-0.86,0.01,-0.02,0.89,15033968
-1.31,-0.86,0.01,-0.02,0.89,15037926
-1.31,-0.86,0.01,-0.02,0.89,15041872
-1.31,-0.86,0.01,-0.02,0.89,15045824
-1.31,-0.86,0.01,-0.02,0.89,15049783
-1.31,-0.86,0.01,-0.02,0.89,15053726
-1.31,-0.86,0.01,-0.02,0.89,15057684
-1.31,-0.86,0.01,-0.02,0.89,15061631
-1.31,-0.86,0.01,-0.02,0.89,15065587
-1.31,-0.86,0.01,-0.02,0.89,15069552
-1.31,-0.86,0.01,-0.02,0.89,15073499
-1.31,-0.86,0.01,-0.02,0.89,15077459
-1.31,-0.86,0.01,-0.02,0.89,15081406
-1.31,-0.86,0.01,-0.02,0.89,15085362
-1.31,-0.86,0.01,-0.02,0.89,15089317
-1.31,-0.86,0.01,-0.02,0.89,15093264
-1.31,-0.86,0.01,-0.02,0.89,15097228
-1.31,-0.86,0.01,-0.02,0.89,15101176
-1.31,-0.86,0.01,-0.02,0.89,15105129
-1.31,-0.86,0.01,-0.02,0.89,15109077
-1.31,-0.86,0.01,-0.02,0.89,15113026
-1.31,-0.86,0.01,-0.02,0.89,15116985
-1.31,-0.86,0.01,-0.02,0.89,15120933
-1.31,-0.86,0.01,-0.02,0.89,15124884
-1.31,-0.86,0.01,-0.02,0.89,15128837
-1.31,-0.86,0.01,-0.02,0.89,15132782
-1.31,-0.86,0.01,-0.02,0.89,15136744
-1.31,-0.86,0.01,-0.02,0.89,15140688
-1.31,-0.86,0.01,-0.02,0.89,15144648
-1.31,-0.86,0.01,-0.02,0.89,15148594
-1.31,-0.86,0.01,-0.02,0.89,15152551
-1.31,-0.86,0.01,-0.02,0.89,15156507
-1.31,-0.86,0.01,-0.02,0.89,15160453
-1.31,-0.86,0.01,-0.02,0.89,15164410
-1.31,-0.86,0.01,-0.02,0.89,15168357
-1.31,-0.86,0.01,-0.02,0.89,15172305
-1.31,-0.86,0.01,-0.02,0.89,15176260
-1.31,-0.86,0.01,-0.02,0.89,15180209
-1.31,-0.86,0.01,-0.02,0.89,15184167
-1.31,-0.86,0.01,-0.02,0.89,15188118
-1.31,-0.86,0.01,-0.02,0.89,15192068
-1.31,-0.86,0.01,-0.02,0.89,15196030
-1.31,-0.86,0.01,-0.02,0.89,15199974
-1.31,-0.86,0.01,-0.02,0.89,15203926
-1.31,-0.86,0.01,-0.02,0.89,15207866
-1.31,-0.86,0.01,-0.02,0.89,15211823
-1.31,-0.86,0.01,-0.02,0.89,15215777
-1.31,-0.86,0.01,-0.02,0.89,15219723
-1.31,-0.86,0.01,-0.02,0.89,15223683
-1.31,-0.86,0.01,-0.02,0.89,15227634
-1.31,-0.86,0.01,-0.02,0.89,15231583
-1.31,-0.86,0.01,-0.02,0.89,15235527
-1.31,-0.86,0.01,-0.02,0.89,15239481
-1.31,-0.86,0.01,-0.02,0.89,15243433
-1.31,-0.86,0.01,-0.02,0.89,15247380
-1.31,-0.86,0.01,-0.02,0.89,15251332
-1.31,-0.86,0.01,-0.02,0.89,15255286
-1.31,-0.86,0.01,-0.02,0.89,15259231
-1.31,-0.86,0.01,-0.02,0.89,15263194
-1.31,-0.86,0.01,-0.02,0.89,15267144
-1.31,-0.86,0.01,-0.02,0.89,15271108
-1.31,-0.86,0.01,-0.02,0.89,15275056
-1.31,-0.86,0.01,-0.02,0.89,15279004
-1.31,-0.86,0.01,-0.02,0.89,15282963
-1.31,-0.86,0.01,-0.02,0.89,15286907
-1.31,-0.86,0.01,-0.02,0.89,15290870
-1.31,-0.86,0.01,-0.02,0.89,15294817
-1.31,-0.86,0.01,-0.02,0.89,15298769
-1.31,-0.86,0.01,-0.02,0.89,15302727
-1.31,-0.86,0.01,-0.02,0.89,15306671
-1.31,-0.86,0.01,-0.02,0.89,15310623
-1.31,-0.86,0.01,-0.02,0.89,15314573
-1.31,-0.86,0.01,-0.02,0.89,15318528
-1.31,-0.86,0.02,-0.02,0.89,15322481
-1.31,-0.86,0.02,-0.02,0.89,15326430
-1.31,-0.86,0.01,-0.02,0.89,15330384
-1.31,-0.86,0.01,-0.02,0.89,15334328
-1.31,-0.86,0.01,-0.02,0.89,15338272
-1.31,-0.86,0.01,-0.02,0.89,15342230
-1.31,-0.86,0.01,-0.02,0.89,15346182
-1.31,-0.86,0.01,-0.02,0.89,15350148
-1.31,-0.86,0.01,-0.02,0.89,15354088
-1.31,-0.86,0.01,-0.02,0.89,15358042
-1.31,-0.86,0.01,-0.02,0.89,15361994
-1.31,-0.86,0.01,-0.02,0.89,15365940
-1.31,-0.86,0.01,-0.02,0.89,15369893
-1.31,-0.86,0.01,-0.02,0.89,15373836
-1.31,-0.86,0.01,-0.02,0.89,15377785
-1.31,-0.86,0.01,-0.02,0.89,15381734
-1.31,-0.86,0.01,-0.02,0.89,15385680
-1.31,-0.86,0.01,-0.02,0.89,15389634
-1.31,-0.86,0.01,-0.02,0.89,15393586
-1.31,-0.86,0.01,-0.02,0.89,15397545
-1.31,-0.86,0.01,-0.02,0.89,15401491
-1.32,-0.86,0.01,-0.02,0.89,15405438
-1.32,-0.86,0.01,-0.02,0.89,15409401
-1.32,-0.86,0.01,-0.02,0.89,15413344
-1.32,-0.86,0.01,-0.02,0.89,15417298
-1.32,-0.86,0.01,-0.02,0.89,15421240
-1.32,-0.86,0.01,-0.02,0.89,15425193
-1.32,-0.86,0.01,-0.02,0.89,15429154
-1.32,-0.86,0.01,-0.02,0.89,15433107
-1.32,-0.86,0.01,-0.02,0.89,15437067
-1.32,-0.86,0.01,-0.02,0.89,15441013
-1.32,-0.86,0.01,-0.02,0.89,15444965
-1.32,-0.86,0.01,-0.02,0.89,15448931
-1.32,-0.86,0.01,-0.02,0.89,15452880
-1.32,-0.86,0.01,-0.02,0.89,15456842
-1.32,-0.86,0.01,-0.02,0.89,15460790
-1.32,-0.86,0.01,-0.02,0.89,15464737
-1.32,-0.86,0.01,-0.02,0.89,15468694
-1.32,-0.85,0.01,-0.02,0.89,15472637
-1.32,-0.85,0.01,-0.02,0.89,15476594
-1.32,-0.85,0.01,-0.02,0.89,15480538
-1.32,-0.85,0.01,-0.02,0.89,15484488
-1.32,-0.85,0.01,-0.02,0.89,15488443
-1.32,-0.85,0.01,-0.02,0.89,15492393
-1.32,-0.85,0.01,-0.02,0.89,15496354
-1.32,-0.85,0.01,-0.02,0.89,15500295
-1.32,-0.85,0.01,-0.02,0.89,15504255
-1.32,-0.85,0.01,-0.02,0.89,15508208
-1.32,-0.85,0.01,-0.02,0.89,15512149
-1.32,-0.85,0.01,-0.02,0.89,15516106
-1.32,-0.85,0.01,-0.02,0.89,15520052
-1.32,-0.85,0.01,-0.02,0.89,15524009
-1.32,-0.85,0.01,-0.02,0.89,15527955
-1.32,-0.85,0.01,-0.02,0.89,15531912
-1.32,-0.85,0.01,-0.02,0.89,15535870
-1.32,-0.85,0.01,-0.02,0.89,15539817
-1.32,-0.85,0.01,-0.02,0.89,15543776
-1.32,-0.85,0.01,-0.02,0.89,15547717
-1.32,-0.85,0.01,-0.02,0.89,15551672
-1.32,-0.85,0.01,-0.02,0.89,15555627
-1.32,-0.85,0.01,-0.02,0.89,15559573
-1.32,-0.85,0.01,-0.02,0.89,15563529
-1.32,-0.85,0.01,-0.02,0.89,15567468
-1.32,-0.85,0.01,-0.02,0.89,15571420
-1.32,-0.85,0.01,-0.02,0.89,15575377
-1.32,-0.85,0.01,-0.02,0.89,15579320
-1.32,-0.85,0.01,-0.02,0.89,15583276
-1.32,-0.85,0.01,-0.02,0.89,15587225
-1.32,-0.85,0.01,-0.02,0.89,15591182
-1.32,-0.85,0.01,-0.02,0.89,15595139
-1.32,-0.85,0.01,-0.02,0.89,15599090
-1.32,-0.85,0.01,-0.02,0.89,15603051
-1.32,-0.85,0.01,-0.02,0.89,15606996
-1.32,-0.85,0.01,-0.02,0.89,15610949
-1.32,-0.85,0.01,-0.02,0.89,15614907
-1.32,-0.85,0.01,-0.02,0.89,15618853
-1.32,-0.85,0.01,-0.02,0.89,15622807
-1.32,-0.85,0.01,-0.02,0.89,15626750
-1.32,-0.85,0.01,-0.02,0.89,15630703
-1.32,-0.85,0.01,-0.02,0.89,15634656
-1.32,-0.85,0.01,-0.02,0.89,15638602
-1.32,-0.85,0.01,-0.02,0.89,15642565
-1.32,-0.85,0.01,-0.02,0.89,15646509
-1.32,-0.85,0.01,-0.02,0.89,15650465
-1.32,-0.85,0.01,-0.02,0.89,15654415
-1.32,-0.85,0.01,-0.02,0.89,15658368
-1.32,-0.85,0.01,-0.02,0.89,15662332
-1.32,-0.85,0.01,-0.02,0.89,15666276
-1.32,-0.85,0.01,-0.02,0.89,15670239
-1.32,-0.85,0.01,-0.02,0.89,15674191
-1.32,-0.85,0.01,-0.02,0.89,15678144
-1.32,-0.85,0.01,-0.02,0.89,15682107
-1.32,-0.85,0.01,-0.02,0.89,15686055
-1.32,-0.85,0.01,-0.02,0.89,15690013
-1.32,-0.85,0.01,-0.02,0.89,15693954
-1.32,-0.85,0.01,-0.02,0.89,15697908
-1.32,-0.85,0.01,-0.02,0.89,15701862
-1.32,-0.85,0.01,-0.02,0.89,15705813
-1.32,-0.85,0.01,-0.02,0.89,15709772
-1.32,-0.85,0.01,-0.02,0.89,15713729
-1.32,-0.85,0.01,-0.02,0.89,15717687
-1.32,-0.85,0.01,-0.02,0.89,15721650
-1.32,-0.85,0.01,-0.02,0.89,15725600
-1.32,-0.85,0.01,-0.02,0.89,15729559
-1.32,-0.85,0.01,-0.02,0.89,15733508
-1.32,-0.85,0.01,-0.02,0.89,15737459
-1.32,-0.85,0.01,-0.02,0.89,15741417
-1.32,-0.85,0.01,-0.02,0.89,15745358
-1.32,-0.85,0.01,-0.02,0.89,15749316
-1.32,-0.85,0.01,-0.02,0.89,15753265
-1.32,-0.85,0.01,-0.02,0.89,15757220
-1.32,-0.85,0.01,-0.02,0.89,15761168
-1.32,-0.85,0.01,-0.02,0.89,15765124
-1.32,-0.85,0.01,-0.02,0.89,15769083
-1.32,-0.85,0.01,-0.02,0.89,15773031
-1.31,-0.85,0.01,-0.02,0.89,15776989
-1.31,-0.85,0.01,-0.02,0.89,15780939
-1.31,-0.85,0.01,-0.02,0.89,15784886
-1.31,-0.85,0.01,-0.02,0.89,15788842
-1.31,-0.85,0.01,-0.02,0.89,15792789
-1.31,-0.85,0.01,-0.02,0.89,15796748
-1.31,-0.85,0.01,-0.02,0.89,15800697
-1.31,-0.85,0.01,-0.02,0.89,15804646
-1.31,-0.85,0.01,-0.02,0.89,15808607
-1.31,-0.85,0.01,-0.02,0.89,15812556
-1.31,-0.85,0.01,-0.02,0.89,15816513
-1.31,-0.85,0.01,-0.02,0.89,15820463
-1.31,-0.85,0.01,-0.02,0.89,15824414
-1.31,-0.85,0.01,-0.02,0.89,15828372
-1.31,-0.85,0.01,-0.02,0.89,15832315
-1.32,-0.85,0.01,-0.02,0.89,15836274
-1.32,-0.85,0.01,-0.02,0.89,15840223
-1.32,-0.85,0.01,-0.02,0.89,15844179
-1.32,-0.85,0.01,-0.02,0.89,15848133
-1.32,-0.85,0.01,-0.02,0.89,15852085
-1.32,-0.85,0.01,-0.02,0.89,15856048
-1.32,-0.85,0.01,-0.02,0.89,15859998
-1.32,-0.84,0.01,-0.02,0.89,15863950
-1.32,-0.84,0.01,-0.02,0.89,15867899
-1.32,-0.84,0.01,-0.02,0.89,15871856
-1.32,-0.84,0.01,-0.02,0.89,15875809
-1.32,-0.84,0.01,-0.02,0.89,15879749
-1.32,-0.84,0.01,-0.02,0.89,15883704
-1.32,-0.84,0.01,-0.02,0.89,15887658
-1.32,-0.84,0.01,-0.02,0.89,15891604
-1.32,-0.84,0.01,-0.02,0.89,15895567
-1.32,-0.84,0.01,-0.02,0.89,15899516
-1.32,-0.84,0.01,-0.02,0.89,15903473
-1.32,-0.84,0.01,-0.02,0.89,15907419
-1.32,-0.85,0.01,-0.02,0.89,15911371
-1.32,-0.85,0.01,-0.02,0.89,15915335
-1.32,-0.85,0.02,-0.02,0.89,15919283
-1.32,-0.85,0.01,-0.02,0.89,15923246
-1.32,-0.85,0.01,-0.02,0.89,15927198
-1.32,-0.85,0.01,-0.02,0.89,15931155
-1.32,-0.85,0.01,-0.02,0.89,15935116
-1.32,-0.85,0.01,-0.02,0.89,15939062
-1.32,-0.85,0.01,-0.02,0.89,15943014
-1.32,-0.85,0.01,-0.02,0.89,15946958
-1.32,-0.85,0.01,-0.02,0.89,15950911
-1.32,-0.85,0.01,-0.02,0.89,15954867
-1.32,-0.85,0.01,-0.02,0.89,15958816
-1.32,-0.85,0.01,-0.02,0.89,15962777
-1.32,-0.85,0.01,-0.02,0.89,15966728
-1.32,-0.85,0.01,-0.02,0.89,15970679
-1.32,-0.85,0.01,-0.02,0.89,15974637
-1.32,-0.85,0.01,-0.02,0.89,15978575
-1.32,-0.85,0.01,-0.02,0.89,15982533
-1.32,-0.85,0.01,-0.02,0.89,15986479
-1.32,-0.85,0.01,-0.02,0.89,15990433
-1.32,-0.85,0.01,-0.02,0.89,15994379
-1.32,-0.85,0.01,-0.02,0.89,15998336
-1.32,-0.85,0.01,-0.02,0.89,16002290
-1.32,-0.85,0.01,-0.02,0.89,16006240
-1.32,-0.85,0.01,-0.02,0.89,16010189
-1.32,-0.85,0.01,-0.02,0.89,16014142
-1.32,-0.85,0.01,-0.02,0.89,16018086
-1.32,-0.85,0.01,-0.02,0.89,16022052
-1.32,-0.85,0.01,-0.02,0.89,16026002
-1.32,-0.85,0.01,-0.02,0.89,16029960
-1.32,-0.85,0.01,-0.02,0.89,16033907
-1.32,-0.85,0.01,-0.02,0.89,16037859
-1.32,-0.85,0.01,-0.02,0.89,16041816
-1.32,-0.85,0.01,-0.02,0.89,16045764
-1.32,-0.85,0.01,-0.02,0.89,16049726
-1.32,-0.85,0.01,-0.02,0.89,16053672
-1.32,-0.85,0.01,-0.02,0.89,16057623
-1.32,-0.85,0.01,-0.02,0.89,16061582
-1.32,-0.85,0.01,-0.02,0.89,16065523
-1.32,-0.85,0.01,-0.02,0.89,16069480
-1.32,-0.85,0.01,-0.02,0.89,16073424
-1.32,-0.85,0.01,-0.02,0.89,16077381
-1.32,-0.85,0.01,-0.02,0.89,16081339
-1.32,-0.85,0.01,-0.02,0.89,16085287
-1.32,-0.85,0.01,-0.02,0.89,16089242
-1.32,-0.85,0.01,-0.02,0.89,16093196
-1.32,-0.85,0.01,-0.02,0.89,16097148
-1.32,-0.85,0.01,-0.02,0.89,16101102
-1.32,-0.85,0.01,-0.02,0.89,16105055
-1.32,-0.85,0.01,-0.02,0.89,16109010
-1.32,-0.85,0.01,-0.02,0.89,16112952
-1.32,-0.85,0.01,-0.02,0.89,16116900
-1.32,-0.85,0.01,-0.02,0.89,16120857
-1.32,-0.85,0.01,-0.02,0.89,16124801
-1.32,-0.85,0.01,-0.02,0.89,16128754
-1.32,-0.85,0.01,-0.02,0.89,16132701
-1.32,-0.85,0.01,-0.02,0.89,16136653
-1.32,-0.85,0.01,-0.02,0.89,16140612
-1.32,-0.85,0.01,-0.02,0.89,16144556
-1.32,-0.85,0.01,-0.02,0.89,16148511
-1.32,-0.85,0.01,-0.02,0.89,16152452
-1.32,-0.85,0.01,-0.02,0.89,16156412
-1.33,-0.85,0.01,-0.02,0.89,16160361
-1.33,-0.85,0.01,-0.02,0.89,16164311
-1.33,-0.85,0.01,-0.02,0.89,16168270
-1.33,-0.85,0.01,-0.02,0.89,16172221
-1.33,-0.85,0.01,-0.02,0.89,16176181
-1.33,-0.85,0.01,-0.02,0.89,16180132
-1.33,-0.85,0.01,-0.02,0.89,16184084
-1.33,-0.85,0.01,-0.02,0.89,16188043
-1.33,-0.85,0.01,-0.02,0.89,16191988
-1.33,-0.85,0.01,-0.02,0.89,16195942
-1.33,-0.85,0.01,-0.02,0.89,16199891
-1.33,-0.85,0.01,-0.02,0.89,16203842
-1.33,-0.85,0.01,-0.02,0.89,16207802
-1.32,-0.85,0.01,-0.02,0.89,16211747
-1.32,-0.85,0.01,-0.02,0.89,16215703
-1.32,-0.85,0.01,-0.02,0.89,16219650
-1.32,-0.85,0.01,-0.02,0.89,16223606
-1.32,-0.85,0.01,-0.02,0.89,16227567
-1.32,-0.85,0.01,-0.02,0.89,16231517
-1.32,-0.85,0.01,-0.02,0.89,16235475
-1.32,-0.85,0.01,-0.02,0.89,16239420
-1.32,-0.85,0.01,-0.02,0.89,16243365
-1.32,-0.85,0.01,-0.02,0.89,16247316
-1.32,-0.85,0.01,-0.02,0.89,16251263
-1.32,-0.85,0.01,-0.02,0.89,16255222
-1.32,-0.86,0.01,-0.02,0.89,16259174
-1.32,-0.86,0.01,-0.02,0.89,16263129
-1.32,-0.86,0.01,-0.02,0.89,16267083
-1.32,-0.86,0.01,-0.02,0.89,16271027
-1.32,-0.86,0.01,-0.02,0.89,16274989
-1.32,-0.86,0.01,-0.02,0.89,16278937
-1.32,-0.86,0.01,-0.02,0.89,16282895
-1.32,-0.86,0.01,-0.02,0.89,16286847
-1.32,-0.86,0.01,-0.02,0.89,16290803
-1.32,-0.86,0.01,-0.02,0.89,16294762
-1.32,-0.86,0.01,-0.02,0.89,16298708
-1.32,-0.86,0.01,-0.02,0.89,16302666
-1.32,-0.86,0.01,-0.02,0.89,16306618
-1.32,-0.86,0.01,-0.02,0.89,16310573
-1.32,-0.86,0.01,-0.02,0.89,16314526
-1.32,-0.86,0.01,-0.02,0.89,16318474
-1.32,-0.86,0.01,-0.02,0.89,16322431
-1.32,-0.86,0.01,-0.02,0.89,16326383
-1.32,-0.85,0.01,-0.02,0.89,16330336
-1.32,-0.85,0.01,-0.02,0.89,16334303
-1.32,-0.85,0.01,-0.02,0.89,16338247
-1.32,-0.85,0.01,-0.02,0.89,16342208
-1.32,-0.85,0.01,-0.02,0.89,16346156
-1.32,-0.85,0.01,-0.02,0.89,16350108
-1.32,-0.85,0.01,-0.02,0.89,16354063
-1.32,-0.85,0.01,-0.02,0.89,16358008
-1.32,-0.85,0.01,-0.02,0.89,16361971
-1.32,-0.85,0.01,-0.02,0.89,16365917
-1.32,-0.85,0.01,-0.02,0.89,16369873
-1.32,-0.85,0.01,-0.02,0.89,16373826
-1.32,-0.85,0.01,-0.02,0.89,16377780
-1.32,-0.85,0.01,-0.02,0.89,16381733
-1.32,-0.85,0.01,-0.02,0.89,16385676
-1.32,-0.85,0.01,-0.02,0.89,16389622
-1.32,-0.85,0.01,-0.02,0.89,16393567
-1.32,-0.85,0.01,-0.02,0.89,16397510
-1.32,-0.85,0.01,-0.02,0.89,16401464
-1.32,-0.85,0.01,-0.02,0.89,16405411
-1.32,-0.85,0.01,-0.02,0.89,16409367
-1.32,-0.85,0.01,-0.02,0.89,16413312
-1.32,-0.85,0.01,-0.02,0.89,16417273
-1.32,-0.85,0.01,-0.02,0.89,16421237
-1.32,-0.85,0.01,-0.02,0.89,16425187
-1.32,-0.85,0.01,-0.02,0.89,16429150
-1.32,-0.85,0.01,-0.02,0.89,16433099
-1.32,-0.85,0.01,-0.02,0.89,16437057
-1.32,-0.85,0.01,-0.02,0.89,16441014
-1.32,-0.85,0.01,-0.02,0.89,16444965
-1.32,-0.85,0.01,-0.02,0.89,16448921
-1.32,-0.85,0.01,-0.02,0.89,16452870
-1.32,-0.85,0.01,-0.02,0.89,16456820
-1.32,-0.85,0.01,-0.02,0.89,16460776
-1.32,-0.85,0.01,-0.02,0.89,16464721
-1.32,-0.85,0.01,-0.02,0.89,16468676
-1.32,-0.85,0.01,-0.02,0.89,16472624
-1.32,-0.85,0.01,-0.02,0.89,16476576
-1.32,-0.85,0.01,-0.02,0.89,16480532
-1.32,-0.85,0.01,-0.02,0.89,16484478
-1.32,-0.85,0.01,-0.02,0.89,16488434
-1.32,-0.85,0.01,-0.02,0.89,16492379
-1.32,-0.85,0.01,-0.02,0.89,16496331
-1.32,-0.85,0.01,-0.02,0.89,16500284
-1.32,-0.85,0.01,-0.02,0.89,16504235
-1.32,-0.85,0.01,-0.02,0.89,16508190
-1.32,-0.85,0.01,-0.02,0.89,16512140
-1.32,-0.85,0.01,-0.02,0.89,16516093
-1.32,-0.85,0.01,-0.02,0.89,16520041
-1.32,-0.85,0.01,-0.02,0.89,16523991
-1.32,-0.85,0.01,-0.02,0.89,16527948
-1.32,-0.85,0.01,-0.02,0.89,16531890
-1.32,-0.85,0.01,-0.02,0.89,16535847
-1.32,-0.85,0.01,-0.02,0.89,16539799
-1.32,-0.84,0.01,-0.02,0.89,16543751
-1.32,-0.84,0.01,-0.02,0.89,16547714
-1.32,-0.84,0.01,-0.02,0.89,16551654
-1.32,-0.84,0.01,-0.02,0.89,16555616
-1.32,-0.84,0.01,-0.02,0.89,16559567
-1.32,-0.85,0.01,-0.02,0.89,16563518
-1.32,-0.85,0.01,-0.02,0.89,16567484
-1.31,-0.85,0.01,-0.02,0.89,16571424
-1.31,-0.85,0.01,-0.02,0.89,16575378
-1.31,-0.85,0.01,-0.02,0.89,16579323
-1.31,-0.85,0.01,-0.02,0.89,16583277
-1.31,-0.85,0.01,-0.02,0.89,16587241
-1.31,-0.85,0.01,-0.02,0.89,16591193
-1.31,-0.85,0.01,-0.02,0.89,16595151
-1.31,-0.85,0.01,-0.02,0.89,16599096
-1.31,-0.85,0.01,-0.02,0.89,16603056
-1.31,-0.85,0.01,-0.02,0.89,16607016
-1.31,-0.85,0.01,-0.02,0.89,16610959
-1.31,-0.85,0.01,-0.02,0.89,16614916
-1.31,-0.85,0.01,-0.02,0.89,16618865
-1.31,-0.85,0.01,-0.02,0.89,16622812
-1.31,-0.85,0.01,-0.02,0.89,16626759
-1.31,-0.85,0.01,-0.02,0.89,16630710
-1.31,-0.85,0.01,-0.02,0.89,16634670
-1.31,-0.85,0.01,-0.02,0.89,16638617
-1.31,-0.85,0.01,-0.02,0.89,16642570
-1.31,-0.85,0.01,-0.02,0.89,16646523
-1.32,-0.85,0.01,-0.02,0.89,16650468
-1.32,-0.85,0.01,-0.02,0.89,16654427
-1.32,-0.85,0.01,-0.02,0.89,16658373
-1.32,-0.85,0.01,-0.02,0.89,16662329
-1.32,-0.85,0.02,-0.02,0.89,16666276
-1.32,-0.85,0.01,-0.02,0.89,16670228
-1.32,-0.85,0.01,-0.02,0.89,16674185
-1.32,-0.85,0.01,-0.02,0.89,16678136
-1.32,-0.85,0.01,-0.02,0.89,16682095
-1.32,-0.85,0.01,-0.02,0.89,16686044
-1.32,-0.85,0.01,-0.02,0.89,16690002
-1.32,-0.85,0.01,-0.02,0.89,16693965
-1.32,-0.85,0.01,-0.02,0.89,16697910
-1.32,-0.85,0.01,-0.02,0.89,16701866
-1.32,-0.85,0.01,-0.02,0.89,16705810
-1.32,-0.85,0.01,-0.02,0.89,16709764
-1.32,-0.85,0.01,-0.02,0.89,16713722
-1.32,-0.85,0.01,-0.02,0.89,16717672
-1.32,-0.85,0.01,-0.02,0.89,16721626
-1.32,-0.85,0.01,-0.02,0.89,16725573
-1.32,-0.85,0.01,-0.02,0.89,16729526
-1.32,-0.85,0.01,-0.02,0.89,16733482
-1.32,-0.85,0.01,-0.02,0.89,16737427
-1.32,-0.85,0.01,-0.02,0.89,16741388
-1.32,-0.85,0.01,-0.02,0.89,16745330
-1.32,-0.85,0.01,-0.02,0.89,16749281
-1.32,-0.85,0.01,-0.02,0.89,16753241
-1.32,-0.85,0.01,-0.02,0.89,16757186
-1.32,-0.85,0.01,-0.02,0.89,16761143
-1.32,-0.85,0.01,-0.02,0.89,16765091
-1.32,-0.85,0.01,-0.02,0.89,16769043
-1.32,-0.85,0.01,-0.02,0.89,16772987
-1.32,-0.85,0.01,-0.02,0.89,16776936
-1.32,-0.85,0.01,-0.02,0.89,16780890
-1.32,-0.85,0.01,-0.02,0.89,16784839
-1.32,-0.85,0.01,-0.02,0.89,16788803
-1.32,-0.85,0.01,-0.02,0.89,16792747
-1.32,-0.85,0.01,-0.02,0.89,16796696
-1.32,-0.85,0.01,-0.02,0.89,16800655
-1.32,-0.85,0.01,-0.02,0.89,16804602
-1.32,-0.85,0.01,-0.02,0.89,16808563
-1.32,-0.85,0.01,-0.02,0.89,16812513
-1.32,-0.85,0.01,-0.02,0.89,16816463
-1.32,-0.85,0.01,-0.02,0.89,16820420
-1.32,-0.85,0.01,-0.02,0.89,16824362
-1.32,-0.85,0.01,-0.02,0.89,16828320
-1.32,-0.85,0.01,-0.02,0.89,16832270
-1.32,-0.85,0.01,-0.02,0.89,16836227
-1.32,-0.85,0.01,-0.02,0.89,16840181
-1.32,-0.85,0.01,-0.02,0.89,16844133
-1.32,-0.85,0.01,-0.02,0.89,16848092
-1.32,-0.85,0.01,-0.02,0.89,16852036
-1.33,-0.85,0.01,-0.03,0.89,16855986
-1.33,-0.85,0.01,-0.03,0.89,16859939
-1.33,-0.85,0.01,-0.03,0.89,16863884
-1.33,-0.85,0.01,-0.03,0.89,16867843
-1.33,-0.85,0.01,-0.02,0.89,16871784
-1.33,-0.85,0.01,-0.02,0.89,16875739
-1.33,-0.84,0.01,-0.01,0.89,16879691
-1.33,-0.84,0.00,-0.01,0.89,16883642
-1.32,-0.84,0.00,-0.01,0.89,16887597
-1.32,-0.84,0.01,-0.01,0.89,16891545
-1.32,-0.84,0.01,-0.01,0.89,16895494
-1.31,-0.84,0.02,-0.02,0.89,16899447
-1.31,-0.84,0.02,-0.02,0.89,16903389
-1.31,-0.84,0.01,-0.02,0.89,16907349
-1.32,-0.84,0.01,-0.03,0.89,16911295
-1.32,-0.84,0.01,-0.03,0.89,16915253
-1.32,-0.84,0.01,-0.03,0.89,16919200
-1.32,-0.84,0.01,-0.02,0.89,16923157
-1.32,-0.84,0.01,-0.02,0.89,16927112
-1.32,-0.84,0.01,-0.02,0.89,16931063
-1.32,-0.84,0.02,-0.02,0.89,16935024
-1.32,-0.84,0.02,-0.02,0.89,16938972
-1.32,-0.85,0.02,-0.02,0.89,16942922
-1.32,-0.85,0.02,-0.02,0.89,16946877
-1.32,-0.86,0.02,-0.02,0.89,16950822
-1.32,-0.86,0.03,-0.02,0.89,16954777
-1.32,-0.87,0.03,-0.02,0.89,16958726
-1.32,-0.87,0.03,-0.02,0.89,16962680
-1.32,-0.88,0.03,-0.02,0.89,16966631
-1.32,-0.88,0.03,-0.03,0.89,16970579
-1.32,-0.88,0.02,-0.03,0.89,16974537
-1.32,-0.89,0.02,-0.03,0.89,16978486
-1.32,-0.89,0.02,-0.03,0.89,16982436
-1.33,-0.89,0.01,-0.02,0.89,16986388
-1.33,-0.88,0.01,-0.02,0.89,16990335
-1.33,-0.88,0.01,-0.02,0.89,16994287
-1.32,-0.88,0.01,-0.02,0.89,16998228
-1.32,-0.88,0.01,-0.02,0.89,17002181
-1.32,-0.88,0.01,-0.01,0.89,17006130
-1.32,-0.87,0.00,-0.01,0.89,17010077
-1.32,-0.87,0.00,-0.01,0.89,17014038
-1.31,-0.86,0.00,-0.01,0.89,17017983
-1.31,-0.86,0.00,-0.02,0.89,17021930
-1.31,-0.86,0.00,-0.02,0.89,17025878
-1.31,-0.86,0.01,-0.02,0.89,17029820
-1.31,-0.86,0.01,-0.02,0.89,17033776
-1.31,-0.85,0.01,-0.02,0.89,17037724
-1.32,-0.85,0.01,-0.02,0.89,17041682
-1.32,-0.85,0.01,-0.02,0.89,17045628
-1.32,-0.85,0.01,-0.02,0.89,17049578
-1.32,-0.86,0.01,-0.02,0.89,17053534
-1.32,-0.86,0.02,-0.02,0.89,17057477
-1.32,-0.86,0.02,-0.02,0.89,17061435
-1.32,-0.86,0.02,-0.02,0.89,17065379
-1.32,-0.87,0.02,-0.02,0.89,17069329
-1.31,-0.87,0.02,-0.02,0.89,17073289
-1.31,-0.87,0.02,-0.02,0.89,17077233
-1.31,-0.88,0.02,-0.02,0.89,17081202
-1.31,-0.88,0.02,-0.02,0.89,17085149
-1.31,-0.88,0.02,-0.02,0.89,17089105
-1.31,-0.88,0.02,-0.02,0.89,17093064
-1.31,-0.88,0.02,-0.02,0.89,17097006
-1.31,-0.88,0.01,-0.02,0.89,17100962
-1.31,-0.88,0.01,-0.03,0.89,17104911
-1.31,-0.87,0.00,-0.03,0.89,17108865
-1.31,-0.87,-0.00,-0.03,0.89,17112820
-1.32,-0.86,-0.01,-0.03,0.89,17116768
-1.32,-0.86,-0.01,-0.02,0.89,17120725
-1.32,-0.85,-0.00,-0.02,0.89,17124670
-1.32,-0.84,-0.00,-0.02,0.89,17128626
-1.32,-0.84,0.00,-0.02,0.89,17132358
-1.32,-0.84,0.00,-0.02,0.89,17136300
-1.32,-0.84,0.01,-0.02,0.89,17140258
-1.32,-0.84,0.01,-0.02,0.89,17144209
-1.32,-0.84,0.02,-0.02,0.89,17148159
-1.32,-0.85,0.03,-0.02,0.89,17152116
-1.32,-0.85,0.03,-0.02,0.89,17156071
-1.31,-0.86,0.03,-0.02,0.89,17160030
-1.31,-0.86,0.03,-0.02,0.89,17163979
-1.31,-0.87,0.03,-0.02,0.89,17167933
-1.31,-0.87,0.02,-0.02,0.89,17171893
-1.31,-0.87,0.02,-0.02,0.89,17175838
-1.31,-0.87,0.02,-0.02,0.89,17179799
-1.31,-0.87,0.01,-0.02,0.89,17183746
-1.31,-0.87,0.01,-0.02,0.89,17187694
-1.32,-0.87,0.02,-0.02,0.89,17191649
-1.32,-0.87,0.02,-0.02,0.89,17195593
-1.32,-0.87,0.02,-0.02,0.89,17199548
-1.32,-0.87,0.02,-0.02,0.89,17203500
-1.31,-0.88,0.02,-0.02,0.89,17207458
-1.31,-0.88,0.02,-0.02,0.89,17211409
-1.31,-0.88,0.02,-0.02,0.89,17215360
-1.31,-0.88,0.02,-0.02,0.89,17219317
-1.31,-0.88,0.02,-0.02,0.89,17223269
-1.31,-0.89,0.02,-0.02,0.89,17227230
-1.31,-0.89,0.02,-0.02,0.89,17231174
-1.31,-0.89,0.02,-0.02,0.89,17235127
-1.31,-0.89,0.02,-0.03,0.89,17239092
-1.31,-0.89,0.01,-0.03,0.89,17243037
-1.32,-0.88,0.01,-0.03,0.89,17246992
-1.32,-0.88,0.01,-0.03,0.89,17250938
-1.32,-0.88,0.01,-0.03,0.89,17254882
-1.32,-0.88,0.01,-0.03,0.89,17258838
-1.32,-0.88,0.01,-0.02,0.89,17262786
-1.32,-0.87,0.01,-0.02,0.89,17266743
-1.32,-0.87,0.01,-0.02,0.89,17270692
-1.32,-0.87,0.01,-0.01,0.89,17274649
-1.32,-0.87,0.01,-0.01,0.89,17278607
-1.31,-0.87,0.01,-0.01,0.89,17282547
-1.31,-0.86,0.01,-0.01,0.89,17286505
-1.31,-0.86,0.01,-0.02,0.89,17290451
-1.31,-0.86,0.00,-0.02,0.89,17294394
-1.31,-0.85,0.00,-0.02,0.89,17298348
-1.31,-0.85,0.00,-0.03,0.89,17302284
-1.32,-0.85,0.00,-0.03,0.89,17306245
-1.32,-0.84,0.00,-0.03,0.89,17310190
-1.33,-0.84,0.01,-0.03,0.89,17314142
-1.33,-0.84,0.01,-0.03,0.89,17318093
-1.33,-0.85,0.02,-0.03,0.89,17322038
-1.33,-0.85,0.02,-0.02,0.89,17325996
-1.33,-0.85,0.03,-0.02,0.89,17329945
-1.33,-0.86,0.03,-0.01,0.89,17333911
-1.33,-0.86,0.03,-0.01,0.89,17337859
-1.32,-0.87,0.02,-0.01,0.89,17341809
-1.32,-0.87,0.02,-0.01,0.89,17345766
-1.31,-0.87,0.02,-0.01,0.89,17349712
-1.31,-0.87,0.01,-0.01,0.89,17353673
-1.31,-0.87,0.01,-0.02,0.89,17357625
-1.31,-0.87,0.01,-0.02,0.89,17361580
-1.31,-0.86,0.01,-0.02,0.89,17365538
-1.31,-0.86,0.01,-0.03,0.89,17369482
-1.32,-0.86,0.00,-0.03,0.89,17373431
-1.32,-0.85,0.00,-0.03,0.89,17377373
-1.32,-0.85,0.00,-0.03,0.89,17381326
-1.32,-0.85,0.00,-0.03,0.89,17385280
-1.32,-0.85,0.01,-0.02,0.89,17389230
-1.32,-0.84,0.01,-0.02,0.89,17393199
-1.32,-0.84,0.01,-0.02,0.89,17397146
-1.32,-0.84,0.01,-0.01,0.89,17401098
-1.32,-0.84,0.01,-0.01,0.89,17405054
-1.31,-0.84,0.01,-0.01,0.89,17408992
-1.31,-0.84,0.01,-0.01,0.89,17412947
-1.31,-0.84,0.01,-0.01,0.89,17416894
-1.31,-0.84,0.01,-0.02,0.89,17420847
-1.31,-0.84,0.02,-0.02,0.89,17424805
-1.31,-0.84,0.02,-0.02,0.89,17428756
-1.31,-0.85,0.02,-0.03,0.89,17432707
-1.31,-0.85,0.02,-0.03,0.89,17436656
-1.32,-0.85,0.02,-0.03,0.89,17440610
-1.32,-0.85,0.02,-0.03,0.89,17444564
-1.32,-0.86,0.02,-0.03,0.89,17448509
-1.32,-0.86,0.02,-0.02,0.89,17452464
-1.32,-0.86,0.02,-0.02,0.89,17456405
-1.32,-0.87,0.02,-0.02,0.89,17460356
-1.32,-0.87,0.02,-0.01,0.89,17464302
-1.32,-0.87,0.02,-0.01,0.89,17468252
-1.31,-0.87,0.01,-0.01,0.89,17472212
-1.31,-0.87,0.01,-0.01,0.89,17476167
-1.31,-0.87,0.01,-0.01,0.89,17480126
-1.31,-0.86,0.01,-0.02,0.89,17484080
-1.31,-0.86,0.01,-0.02,0.89,17488029
-1.31,-0.86,0.01,-0.02,0.89,17491985
-1.31,-0.85,0.01,-0.03,0.89,17495934
-1.31,-0.85,0.01,-0.03,0.89,17499889
-1.32,-0.85,0.01,-0.03,0.89,17503839
-1.32,-0.85,0.01,-0.03,0.89,17507787
-1.32,-0.85,0.02,-0.03,0.89,17511746
-1.32,-0.85,0.02,-0.02,0.89,17515688
-1.32,-0.86,0.02,-0.02,0.89,17519643
-1.32,-0.86,0.02,-0.02,0.89,17523587
-1.32,-0.86,0.02,-0.02,0.89,17527537
-1.32,-0.86,0.02,-0.02,0.89,17531494
-1.32,-0.86,0.02,-0.02,0.89,17535436
-1.32,-0.86,0.02,-0.02,0.89,17539392
-1.32,-0.87,0.02,-0.02,0.89,17543339
-1.31,-0.86,0.01,-0.02,0.89,17547288
-1.31,-0.86,0.01,-0.02,0.89,17551244
-1.31,-0.86,0.01,-0.02,0.89,17555191
-1.32,-0.86,0.01,-0.02,0.89,17559145
-1.32,-0.86,0.01,-0.02,0.89,17563098
-1.32,-0.86,0.01,-0.03,0.89,17567050
-1.32,-0.86,0.02,-0.02,0.89,17570996
-1.32,-0.86,0.02,-0.02,0.89,17574931
-1.32,-0.86,0.02,-0.02,0.89,17578882
-1.32,-0.86,0.01,-0.02,0.89,17582829
-1.32,-0.86,0.01,-0.02,0.89,17586780
-1.32,-0.86,0.01,-0.02,0.89,17590730
-1.32,-0.86,0.01,-0.02,0.89,17594672
-1.32,-0.86,0.02,-0.02,0.89,17598632
-1.32,-0.86,0.01,-0.02,0.89,17602576
-1.31,-0.86,0.01,-0.02,0.89,17606537
-1.31,-0.86,0.01,-0.02,0.89,17610483
-1.31,-0.86,0.01,-0.02,0.89,17614423
-1.31,-0.86,0.01,-0.02,0.90,17618371
-1.31,-0.86,0.01,-0.02,0.90,17622313
-1.31,-0.86,0.01,-0.02,0.89,17626269
-1.31,-0.86,0.02,-0.03,0.89,17630211
-1.31,-0.86,0.02,-0.03,0.89,17634170
-1.32,-0.86,0.01,-0.03,0.89,17638130
-1.32,-0.86,0.01,-0.03,0.89,17642079
-1.32,-0.85,0.01,-0.03,0.89,17646035
-1.32,-0.85,0.00,-0.02,0.89,17649978
-1.32,-0.85,0.00,-0.02,0.89,17653928
-1.32,-0.84,0.01,-0.02,0.89,17657883
-1.31,-0.84,0.01,-0.01,0.89,17661833
-1.31,-0.84,0.01,-0.01,0.89,17665793
-1.31,-0.85,0.02,-0.01,0.89,17669738
-1.31,-0.85,0.02,-0.01,0.89,17673691
-1.31,-0.85,0.02,-0.02,0.89,17677647
-1.31,-0.86,0.03,-0.02,0.89,17681602
-1.31,-0.86,0.03,-0.03,0.89,17685561
-1.32,-0.87,0.03,-0.04,0.89,17689506
-1.32,-0.87,0.03,-0.04,0.89,17693457
-1.33,-0.88,0.03,-0.04,0.89,17697412
-1.33,-0.88,0.03,-0.04,0.89,17701356
-1.34,-0.88,0.02,-0.04,0.89,17705306
-1.34,-0.88,0.02,-0.03,0.89,17709249
-1.34,-0.88,0.01,-0.02,0.89,17713215
-1.34,-0.88,0.01,-0.02,0.89,17717165
-1.33,-0.87,0.00,-0.01,0.89,17721110
-1.33,-0.87,0.00,-0.01,0.89,17725061
-1.32,-0.87,0.00,-0.00,0.89,17729000
-1.32,-0.86,0.00,-0.00,0.89,17732948
-1.31,-0.86,0.00,-0.00,0.89,17736878
-1.31,-0.85,0.00,-0.01,0.89,17740823
-1.31,-0.85,0.00,-0.01,0.89,17744780
-1.31,-0.84,0.00,-0.02,0.89,17748731
-1.31,-0.84,0.00,-0.02,0.89,17752683
-1.31,-0.84,0.01,-0.03,0.89,17756632
-1.31,-0.84,0.01,-0.03,0.89,17760588
-1.31,-0.84,0.01,-0.03,0.89,17764540
-1.32,-0.83,0.01,-0.03,0.89,17768489
-1.32,-0.83,0.01,-0.02,0.89,17772443
-1.32,-0.83,0.01,-0.02,0.89,17776385
-1.31,-0.83,0.01,-0.01,0.89,17780340
-1.31,-0.83,0.01,-0.01,0.89,17784288
-1.31,-0.83,0.02,-0.01,0.89,17788245
-1.31,-0.83,0.02,-0.01,0.89,17792207
-1.30,-0.84,0.02,-0.01,0.89,17796149
-1.30,-0.84,0.03,-0.01,0.89,17800101
-1.30,-0.85,0.02,-0.01,0.89,17804052
-1.30,-0.85,0.02,-0.02,0.89,17808001
-1.30,-0.85,0.01,-0.02,0.89,17811952
-1.29,-0.85,0.01,-0.02,0.89,17815896
-1.29,-0.85,0.01,-0.02,0.89,17819844
-1.29,-0.84,0.01,-0.02,0.89,17823794
-1.29,-0.84,0.01,-0.02,0.89,17827740
-1.29,-0.84,0.01,-0.02,0.89,17831700
-1.29,-0.84,0.01,-0.02,0.89,17835647
-1.29,-0.83,0.01,-0.02,0.89,17839604
-1.29,-0.83,0.01,-0.02,0.89,17843550
-1.29,-0.83,0.01,-0.02,0.89,17847495
-1.29,-0.83,0.01,-0.02,0.89,17851452
-1.29,-0.83,0.01,-0.03,0.89,17855394
-1.30,-0.82,0.01,-0.03,0.89,17859342
-1.30,-0.82,0.01,-0.03,0.89,17863282
-1.30,-0.82,0.00,-0.03,0.89,17867233
-1.30,-0.82,0.00,-0.02,0.89,17871186
-1.30,-0.82,-0.00,-0.02,0.89,17875126
-1.30,-0.81,-0.00,-0.02,0.89,17879078
-1.30,-0.81,-0.00,-0.01,0.89,17883018
-1.29,-0.81,0.00,-0.01,0.89,17886961
-1.29,-0.81,0.01,-0.01,0.89,17890918
-1.29,-0.81,0.01,-0.01,0.89,17894863
-1.28,-0.81,0.01,-0.01,0.89,17898819
-1.28,-0.81,0.01,-0.02,0.89,17902767
-1.28,-0.81,0.01,-0.02,0.89,17906721
-1.28,-0.81,0.01,-0.02,0.89,17910677
-1.28,-0.81,0.01,-0.02,0.89,17914623
-1.28,-0.81,0.01,-0.03,0.89,17918582
-1.29,-0.81,0.02,-0.03,0.89,17922527
-1.29,-0.81,0.02,-0.03,0.89,17926477
-1.29,-0.82,0.01,-0.03,0.89,17930433
-1.29,-0.82,0.01,-0.03,0.89,17934383
-1.29,-0.82,0.01,-0.03,0.89,17938346
-1.29,-0.82,0.01,-0.02,0.89,17942293
-1.29,-0.82,0.01,-0.02,0.89,17946246
-1.29,-0.82,0.02,-0.02,0.89,17950196
-1.29,-0.83,0.02,-0.02,0.89,17954150
-1.29,-0.83,0.03,-0.02,0.89,17958108
-1.29,-0.84,0.03,-0.02,0.89,17962058
-1.29,-0.85,0.03,-0.02,0.89,17966010
-1.29,-0.86,0.03,-0.02,0.89,17969968
-1.29,-0.86,0.03,-0.02,0.89,17973912
-1.29,-0.87,0.03,-0.02,0.89,17977862
-1.29,-0.88,0.03,-0.02,0.89,17981805
-1.29,-0.88,0.03,-0.02,0.89,17985751
-1.29,-0.89,0.02,-0.01,0.89,17989706
-1.29,-0.89,0.01,-0.01,0.89,17993651
-1.28,-0.88,0.00,-0.01,0.89,17997602
-1.28,-0.87,-0.01,-0.01,0.89,18001546
-1.27,-0.86,-0.02,-0.01,0.89,18005504
-1.27,-0.85,-0.03,-0.00,0.89,18009450
-1.26,-0.84,-0.03,-0.00,0.89,18013389
-1.25,-0.83,-0.03,0.00,0.89,18017346
-1.24,-0.82,-0.02,0.01,0.89,18021293
-1.24,-0.82,-0.00,0.00,0.89,18025242
-1.25,-0.81,-0.00,-0.04,0.89,18029194
-1.26,-0.81,0.00,-0.05,0.89,18033134
-1.27,-0.82,0.03,-0.04,0.89,18037092
-1.27,-0.84,0.06,-0.03,0.89,18041031
-1.27,-0.87,0.10,-0.02,0.91,18044986
-1.27,-0.90,0.12,-0.04,0.90,18048925
-1.28,-0.93,0.11,-0.03,0.91,18052872
-1.27,-0.95,0.08,-0.02,0.90,18056826
-1.27,-0.95,0.04,-0.02,0.89,18060769
-1.27,-0.95,0.00,-0.03,0.89,18064717
-1.28,-0.93,-0.03,-0.05,0.89,18068661
-1.29,-0.91,-0.04,-0.05,0.89,18072613
-1.30,-0.90,-0.04,-0.05,0.88,18076561
-1.31,-0.89,-0.02,-0.05,0.89,18080512
-1.32,-0.88,-0.00,-0.07,0.89,18084466
-1.34,-0.88,0.01,-0.06,0.90,18088411
-1.35,-0.88,0.01,-0.04,0.89,18092360
-1.34,-0.89,0.02,-0.01,0.89,18096319
-1.33,-0.89,0.04,0.01,0.90,18100264
-1.32,-0.91,0.05,0.01,0.90,18104215
-1.31,-0.93,0.07,0.01,0.90,18108152
-1.30,-0.94,0.07,0.02,0.89,18112108
-1.29,-0.96,0.06,0.02,0.89,18116066
-1.27,-0.96,0.04,0.02,0.89,18120017
-1.26,-0.96,0.02,0.01,0.89,18123974
-1.25,-0.96,-0.00,0.00,0.89,18127906
-1.25,-0.94,-0.02,-0.01,0.89,18131857
-1.25,-0.93,-0.02,-0.02,0.89,18135814
-1.25,-0.92,-0.01,-0.03,0.89,18139760
-1.26,-0.92,0.00,-0.05,0.89,18143713
-1.27,-0.92,0.01,-0.05,0.89,18147659
-1.28,-0.91,0.01,-0.04,0.89,18151607
-1.28,-0.91,0.01,-0.03,0.89,18155553
-1.28,-0.90,-0.00,-0.02,0.89,18159498
-1.28,-0.90,-0.01,-0.02,0.89,18163444
-1.28,-0.89,-0.01,-0.02,0.89,18167386
-1.28,-0.89,0.00,-0.01,0.89,18171323
-1.27,-0.88,0.01,0.00,0.89,18175274
-1.26,-0.89,0.02,0.00,0.89,18179229
-1.25,-0.89,0.02,-0.00,0.90,18183175
-1.25,-0.89,0.02,-0.00,0.89,18187120
-1.25,-0.89,0.01,-0.01,0.89,18191081
-1.24,-0.88,0.00,-0.01,0.89,18195021
-1.25,-0.88,0.01,-0.03,0.89,18198971
-1.25,-0.88,0.01,-0.03,0.89,18202919
-1.25,-0.88,0.02,-0.03,0.89,18206860
-1.26,-0.89,0.03,-0.03,0.89,18210818
-1.26,-0.90,0.04,-0.03,0.89,18214758
-1.27,-0.91,0.04,-0.03,0.90,18218709
-1.27,-0.92,0.04,-0.04,0.90,18222657
-1.28,-0.92,0.04,-0.03,0.89,18226591
-1.28,-0.93,0.04,-0.02,0.90,18230548
-1.46,-0.73,-0.00,-0.00,-0.00,18233498
-1.46,-0.74,0.05,-0.02,0.90,18237447
-1.45,-0.75,0.04,-0.02,0.90,18241393
-1.46,-0.76,0.04,-0.03,0.90,18245335
-1.46,-0.76,0.02,-0.03,0.90,18249291
-1.46,-0.75,-0.00,-0.03,0.89,18253237
-1.47,-0.74,-0.02,-0.04,0.89,18257190
-1.47,-0.72,-0.04,-0.03,0.89,18261148
-1.47,-0.70,-0.05,-0.03,0.89,18265095
-1.47,-0.68,-0.04,-0.02,0.89,18269058
-1.47,-0.67,-0.02,-0.00,0.89,18273002
-1.47,-0.66,-0.01,0.00,0.89,18276944
-1.47,-0.67,0.01,-0.00,0.89,18280897
-1.46,-0.67,0.04,-0.01,0.89,18284842
-1.45,-0.69,0.06,0.00,0.89,18288788
-1.44,-0.71,0.09,0.02,0.90,18292727
-1.43,-0.74,0.10,0.01,0.90,18296670
-1.42,-0.76,0.09,-0.01,0.90,18300622
-1.42,-0.77,0.05,-0.02,0.89,18304564
-1.42,-0.77,0.01,-0.03,0.89,18308514
-1.42,-0.76,-0.02,-0.04,0.89,18312458
-1.43,-0.74,-0.04,-0.06,0.89,18316408
-1.45,-0.72,-0.04,-0.07,0.88,18320365
-1.46,-0.70,-0.04,-0.07,0.89,18324306
-1.47,-0.68,-0.03,-0.06,0.89,18328263
-1.49,-0.68,-0.01,-0.06,0.89,18332210
-1.50,-0.67,0.00,-0.05,0.89,18336150
-1.50,-0.67,0.01,-0.04,0.89,18340108
-1.50,-0.67,0.02,-0.02,0.89,18344054
-1.50,-0.68,0.02,-0.01,0.89,18347999
-1.49,-0.68,0.02,-0.00,0.89,18351946
-1.49,-0.68,0.02,-0.01,0.89,18355904
-1.48,-0.68,0.01,-0.01,0.89,18359865
-1.48,-0.68,0.01,-0.01,0.89,18363811
-1.47,-0.68,0.00,-0.01,0.89,18367758
-1.47,-0.68,0.00,-0.01,0.89,18371703
-1.47,-0.67,0.00,-0.02,0.89,18375654
-1.46,-0.67,0.00,-0.02,0.89,18379607
-1.46,-0.67,0.00,-0.01,0.89,18383542
-1.46,-0.67,0.00,-0.01,0.89,18387504
-1.45,-0.67,0.01,-0.02,0.89,18391451
-1.45,-0.67,0.01,-0.02,0.89,18395397
-1.45,-0.67,0.01,-0.01,0.89,18399355
-1.44,-0.67,0.01,0.00,0.89,18403295
-1.43,-0.67,0.01,0.01,0.89,18407257
-1.42,-0.67,0.01,0.00,0.89,18411198
-1.41,-0.68,0.01,0.00,0.89,18414470
-1.40,-0.68,0.01,-0.00,0.89,18418406
-1.40,-0.68,0.01,-0.00,0.89,18422351
-1.39,-0.68,0.02,-0.01,0.89,18426309
-1.39,-0.68,0.02,-0.02,0.89,18430256
-1.40,-0.69,0.02,-0.03,0.89,18434215
-1.40,-0.69,0.02,-0.04,0.89,18438154
-1.41,-0.69,0.02,-0.04,0.89,18442114
-1.42,-0.69,0.01,-0.04,0.89,18446066
-1.42,-0.69,0.01,-0.04,0.89,18450016
-1.43,-0.69,0.01,-0.04,0.89,18453967
-1.43,-0.69,0.01,-0.03,0.89,18457916
-1.43,-0.69,0.00,-0.02,0.89,18461870
-1.42,-0.68,-0.01,-0.00,0.89,18465821
-1.42,-0.68,-0.01,0.01,0.89,18469763
-1.41,-0.67,-0.00,-0.00,0.89,18473712
-1.41,-0.67,0.01,-0.02,0.89,18477657
-1.41,-0.68,0.02,-0.03,0.89,18481604
-1.41,-0.68,0.04,-0.01,0.90,18485562
-1.40,-0.70,0.05,-0.00,0.89,18489491
-1.40,-0.71,0.06,-0.01,0.90,18493439
-1.40,-0.73,0.05,-0.04,0.90,18497382
-1.41,-0.73,0.04,-0.05,0.90,18501329
-1.41,-0.74,0.02,-0.05,0.90,18505273
-1.42,-0.73,0.00,-0.06,0.89,18509218
-1.44,-0.72,-0.01,-0.06,0.89,18513179
-1.45,-0.72,-0.00,-0.06,0.89,18517119
-1.46,-0.72,0.01,-0.04,0.89,18521068
-1.46,-0.72,0.03,-0.03,0.89,18525024
-1.46,-0.73,0.05,-0.03,0.90,18528966
-1.46,-0.74,0.05,-0.03,0.90,18532914
-1.46,-0.75,0.04,-0.02,0.90,18536851
-1.45,-0.76,0.02,-0.00,0.89,18540798
-1.44,-0.75,0.00,0.01,0.89,18544743
-1.44,-0.74,-0.01,0.00,0.89,18548687
-1.43,-0.73,-0.02,-0.01,0.89,18552639
-1.43,-0.72,-0.02,-0.01,0.89,18556588
-1.43,-0.71,-0.02,-0.01,0.89,18560544
-1.42,-0.69,-0.02,-0.01,0.89,18564498
-1.42,-0.68,-0.02,-0.01,0.89,18568447
-1.42,-0.67,-0.03,-0.01,0.89,18572402
-1.41,-0.65,-0.04,-0.01,0.89,18576347
-1.41,-0.64,-0.05,-0.01,0.88,18580301
-1.40,-0.62,-0.04,-0.01,0.88,18584252
-1.40,-0.61,-0.03,-0.02,0.89,18588201
-1.40,-0.61,-0.00,-0.01,0.89,18592156
-1.39,-0.62,0.02,-0.01,0.89,18596097
-1.38,-0.63,0.03,0.00,0.89,18600042
-1.38,-0.63,0.03,-0.00,0.89,18603988
-1.37,-0.64,0.02,-0.01,0.89,18607939
-1.37,-0.65,0.02,-0.02,0.89,18611897
-1.37,-0.65,0.03,-0.02,0.89,18615846
-1.37,-0.66,0.03,-0.02,0.89,18619798
-1.37,-0.68,0.05,-0.02,0.89,18623744
-1.37,-0.69,0.06,-0.03,0.89,18627693
-1.37,-0.71,0.06,-0.04,0.90,18631642
-1.38,-0.73,0.06,-0.04,0.90,18635583
-1.38,-0.74,0.05,-0.04,0.90,18639536
-1.39,-0.75,0.04,-0.05,0.89,18643479
-1.40,-0.76,0.03,-0.05,0.89,18647423
-1.40,-0.76,0.03,-0.04,0.89,18651377
-1.41,-0.77,0.04,-0.04,0.89,18655321
-1.41,-0.78,0.04,-0.03,0.90,18659275
-1.41,-0.79,0.04,-0.03,0.89,18663215
-1.41,-0.80,0.04,-0.03,0.90,18667162
-1.41,-0.80,0.02,-0.02,0.89,18671109
-1.41,-0.80,0.01,-0.02,0.89,18675057
-1.41,-0.79,-0.00,-0.01,0.89,18679016
-1.40,-0.78,-0.01,-0.01,0.89,18682954
-1.40,-0.77,-0.02,-0.02,0.89,18686897
-1.40,-0.76,-0.03,-0.02,0.89,18690852
-1.40,-0.74,-0.03,-0.02,0.89,18694796
-1.40,-0.73,-0.03,-0.03,0.89,18698746
-1.41,-0.71,-0.04,-0.03,0.89,18702704
-1.41,-0.70,-0.04,-0.03,0.89,18706642
-1.41,-0.69,-0.03,-0.02,0.89,18710601
-1.41,-0.68,-0.02,-0.01,0.89,18714548
-1.40,-0.68,-0.01,-0.01,0.89,18718500
-1.40,-0.68,0.00,-0.01,0.89,18722438
-1.40,-0.68,0.01,-0.00,0.89,18726381
-1.39,-0.69,0.02,-0.00,0.89,18730328
-1.38,-0.69,0.03,0.00,0.89,18734270
-1.37,-0.70,0.03,0.00,0.89,18737992
-1.37,-0.71,0.03,-0.01,0.89,18741930
-1.37,-0.72,0.03,-0.01,0.89,18745885
-1.37,-0.73,0.04,-0.02,0.89,18749841
-1.37,-0.74,0.04,-0.02,0.89,18753790
-1.37,-0.75,0.05,-0.03,0.90,18757741
-1.37,-0.77,0.05,-0.03,0.90,18761683
-1.38,-0.78,0.05,-0.03,0.90,18765621
-1.38,-0.79,0.05,-0.03,0.90,18769574
-1.39,-0.80,0.04,-0.03,0.90,18773515
-1.39,-0.81,0.04,-0.03,0.90,18777472
-1.39,-0.82,0.04,-0.03,0.90,18781411
-1.39,-0.82,0.04,-0.03,0.90,18785361
-1.39,-0.83,0.03,-0.02,0.90,18789324
-1.39,-0.83,0.03,-0.01,0.89,18793270
-1.39,-0.84,0.03,-0.01,0.90,18797228
-1.39,-0.84,0.02,-0.01,0.89,18801169
-1.39,-0.84,0.01,-0.01,0.89,18805129
-1.39,-0.83,0.01,-0.02,0.89,18809089
-1.39,-0.83,0.01,-0.02,0.89,18813039
-1.39,-0.83,0.02,-0.02,0.89,18816994
-1.39,-0.83,0.03,-0.03,0.90,18820939
-1.40,-0.84,0.04,-0.03,0.90,18824889
-1.41,-0.85,0.03,-0.04,0.90,18828838
-1.41,-0.85,0.02,-0.04,0.90,18832785
-1.42,-0.84,0.01,-0.04,0.90,18836737
-1.43,-0.84,0.00,-0.04,0.90,18840447
-1.43,-0.83,-0.00,-0.03,0.89,18844387
-1.43,-0.82,-0.01,-0.02,0.89,18848327
-1.43,-0.81,-0.01,-0.02,0.89,18852285
-1.42,-0.80,-0.02,-0.01,0.89,18856244
-1.41,-0.79,-0.03,-0.00,0.89,18860194
-1.41,-0.77,-0.04,0.00,0.88,18864140
-1.40,-0.75,-0.05,0.01,0.88,18868098
-1.39,-0.73,-0.05,0.01,0.88,18872043
-1.38,-0.71,-0.04,-0.00,0.89,18875999
-1.38,-0.70,-0.03,-0.01,0.89,18879943
-1.38,-0.70,-0.01,-0.02,0.89,18883889
-1.38,-0.70,0.00,-0.03,0.89,18887837
-1.39,-0.70,0.01,-0.03,0.89,18891781
-1.39,-0.70,0.01,-0.04,0.89,18895734
-1.39,-0.70,0.01,-0.03,0.89,18899674
-1.40,-0.71,0.02,-0.03,0.89,18903619
-1.40,-0.71,0.02,-0.03,0.89,18907570
-1.40,-0.72,0.03,-0.02,0.89,18911519
-1.40,-0.73,0.04,-0.02,0.90,18915464
-1.39,-0.74,0.04,-0.02,0.89,18919410
-1.39,-0.75,0.04,-0.01,0.90,18923357
-1.38,-0.76,0.04,-0.01,0.89,18927312
-1.38,-0.77,0.03,-0.01,0.89,18931264
-1.38,-0.78,0.03,-0.01,0.89,18935220
-1.37,-0.78,0.03,-0.01,0.89,18939164
-1.37,-0.79,0.03,-0.02,0.89,18943117
-1.37,-0.80,0.04,-0.03,0.89,18947055
-1.38,-0.81,0.04,-0.03,0.89,18951005
-1.38,-0.81,0.03,-0.03,0.89,18954959
-1.39,-0.82,0.03,-0.03,0.89,18958911
-1.39,-0.82,0.02,-0.03,0.89,18962870
-1.39,-0.82,0.01,-0.03,0.89,18966823
-1.39,-0.81,0.00,-0.03,0.89,18970764
-1.39,-0.81,0.01,-0.02,0.89,18974722
-1.39,-0.81,0.01,-0.02,0.89,18978663
-1.39,-0.81,0.01,-0.01,0.89,18982625
-1.39,-0.80,0.01,-0.01,0.89,18986566
-1.38,-0.80,0.01,-0.01,0.89,18990510
-1.38,-0.80,0.00,-0.01,0.89,18994460
-1.38,-0.79,-0.00,-0.01,0.89,18998401
-1.38,-0.79,-0.00,-0.02,0.89,19002360
-1.37,-0.78,-0.00,-0.02,0.89,19006305
-1.38,-0.78,0.00,-0.02,0.89,19010258
-1.38,-0.78,0.01,-0.03,0.89,19014215
-1.38,-0.78,0.01,-0.03,0.89,19018163
-1.39,-0.77,0.01,-0.03,0.89,19022117
-1.39,-0.77,0.00,-0.03,0.89,19026055
-1.39,-0.77,0.01,-0.03,0.89,19029998
-1.39,-0.77,0.01,-0.02,0.89,19033957
-1.39,-0.77,0.01,-0.02,0.89,19037893
-1.39,-0.77,0.02,-0.02,0.89,19041851
-1.39,-0.78,0.03,-0.01,0.89,19045801
-1.38,-0.78,0.03,-0.01,0.89,19049753
-1.38,-0.79,0.03,-0.01,0.89,19053711
-1.38,-0.80,0.03,-0.02,0.89,19057655
-1.38,-0.80,0.02,-0.02,0.89,19061610
-1.38,-0.80,0.02,-0.02,0.89,19065546
-1.38,-0.80,0.02,-0.02,0.89,19069496
-1.38,-0.80,0.02,-0.03,0.89,19073445
-1.38,-0.80,0.02,-0.03,0.89,19077389
-1.39,-0.80,0.02,-0.03,0.89,19081344
-1.39,-0.80,0.01,-0.03,0.89,19085289
-1.39,-0.80,0.01,-0.03,0.89,19089245
-1.39,-0.80,0.01,-0.02,0.89,19093189
-1.39,-0.80,0.01,-0.02,0.89,19097135
-1.39,-0.80,0.01,-0.01,0.89,19101091
-1.38,-0.80,0.01,-0.01,0.89,19105032
-1.38,-0.80,0.01,-0.01,0.89,19108987
-1.38,-0.80,0.01,-0.01,0.89,19112929
-1.38,-0.80,0.01,-0.01,0.89,19116882
-1.37,-0.79,0.01,-0.01,0.89,19120838
-1.37,-0.79,0.01,-0.02,0.89,19124782
-1.37,-0.79,0.00,-0.02,0.89,19128733
-1.37,-0.79,0.01,-0.02,0.89,19132679
-1.37,-0.79,0.01,-0.03,0.89,19136629
-1.38,-0.79,0.01,-0.03,0.89,19140583
-1.38,-0.79,0.01,-0.03,0.89,19144530
-1.38,-0.79,0.02,-0.02,0.89,19148483
-1.38,-0.79,0.02,-0.02,0.89,19152429
-1.38,-0.80,0.02,-0.02,0.89,19156379
-1.37,-0.80,0.02,-0.02,0.89,19160332
-1.37,-0.80,0.02,-0.01,0.89,19164277
-1.37,-0.81,0.02,-0.01,0.89,19168240
-1.37,-0.81,0.02,-0.01,0.89,19172188
-1.36,-0.81,0.02,-0.01,0.89,19176143
-1.36,-0.81,0.02,-0.02,0.89,19180100
-1.36,-0.82,0.02,-0.02,0.89,19184042
-1.36,-0.82,0.02,-0.02,0.89,19187997
-1.36,-0.82,0.02,-0.02,0.89,19191944
-1.36,-0.82,0.02,-0.03,0.89,19195899
-1.37,-0.82,0.02,-0.03,0.89,19199855
-1.37,-0.83,0.02,-0.03,0.89,19203799
-1.37,-0.83,0.02,-0.02,0.89,19207754
-1.37,-0.82,0.01,-0.02,0.89,19211701
-1.37,-0.82,0.01,-0.02,0.89,19215657
-1.37,-0.82,0.01,-0.02,0.89,19219606
-1.37,-0.82,0.01,-0.02,0.89,19223550
-1.36,-0.82,0.01,-0.02,0.89,19227507
-1.36,-0.82,0.01,-0.01,0.89,19231456
-1.36,-0.82,0.01,-0.01,0.89,19235411
-1.36,-0.82,0.01,-0.02,0.89,19239361
-1.36,-0.82,0.01,-0.02,0.89,19243315
-1.36,-0.82,0.01,-0.02,0.89,19247275
-1.36,-0.81,0.01,-0.02,0.89,19251221
-1.36,-0.81,0.01,-0.03,0.89,19255174
-1.36,-0.81,0.00,-0.03,0.89,19259119
-1.36,-0.81,0.00,-0.03,0.89,19263069
-1.37,-0.80,0.01,-0.03,0.89,19267021
-1.37,-0.80,0.01,-0.03,0.89,19270962
-1.37,-0.80,0.01,-0.03,0.89,19274920
-1.37,-0.81,0.02,-0.02,0.89,19278866
-1.37,-0.81,0.02,-0.02,0.90,19282821
-1.37,-0.81,0.02,-0.02,0.89,19286774
-1.37,-0.81,0.02,-0.02,0.89,19290719
-1.37,-0.81,0.02,-0.02,0.89,19294669
-1.37,-0.82,0.02,-0.02,0.89,19298615
-1.36,-0.82,0.01,-0.02,0.89,19302563
-1.36,-0.82,0.01,-0.02,0.89,19306521
-1.36,-0.81,0.01,-0.02,0.89,19310471
-1.37,-0.81,0.01,-0.02,0.89,19314424
-1.37,-0.81,0.01,-0.02,0.89,19318368
-1.37,-0.81,0.01,-0.02,0.89,19322320
-1.37,-0.81,0.01,-0.02,0.89,19326274
-1.37,-0.81,0.01,-0.02,0.89,19330224
-1.37,-0.81,0.01,-0.02,0.89,19334176
-1.37,-0.81,0.01,-0.02,0.89,19338129
-1.36,-0.81,0.01,-0.02,0.89,19342088
-1.36,-0.81,0.01,-0.01,0.89,19346037
-1.36,-0.81,0.01,-0.01,0.89,19349991
-1.36,-0.81,0.01,-0.01,0.89,19353949
-1.35,-0.80,0.01,-0.01,0.89,19357892
-1.35,-0.80,0.01,-0.02,0.89,19361846
-1.35,-0.80,0.01,-0.02,0.89,19365786
-1.35,-0.80,0.01,-0.02,0.89,19369738
-1.35,-0.80,0.02,-0.02,0.89,19373688
-1.35,-0.81,0.02,-0.02,0.89,19377630
-1.35,-0.81,0.02,-0.02,0.89,19381578
-1.35,-0.81,0.02,-0.02,0.89,19385523
-1.35,-0.81,0.02,-0.02,0.89,19389471
-1.35,-0.81,0.01,-0.02,0.89,19393423
-1.35,-0.81,0.01,-0.02,0.89,19397371
-1.35,-0.81,0.02,-0.02,0.89,19401330
-1.35,-0.81,0.02,-0.02,0.89,19405278
-1.35,-0.82,0.02,-0.02,0.89,19409232
-1.34,-0.82,0.02,-0.01,0.89,19413192
-1.34,-0.82,0.03,-0.01,0.89,19417146
-1.34,-0.83,0.03,-0.02,0.89,19421106
-1.34,-0.83,0.02,-0.02,0.89,19425054
-1.34,-0.83,0.02,-0.02,0.89,19429002
-1.34,-0.83,0.01,-0.02,0.89,19432958
-1.34,-0.83,0.01,-0.03,0.89,19436908
-1.34,-0.83,0.01,-0.03,0.89,19440859
-1.34,-0.83,0.01,-0.03,0.89,19444798
-1.35,-0.82,0.01,-0.03,0.89,19448748
-1.35,-0.83,0.01,-0.03,0.89,19452689
-1.35,-0.83,0.02,-0.03,0.89,19456638
-1.35,-0.83,0.02,-0.02,0.89,19460592
-1.35,-0.83,0.02,-0.02,0.89,19464536
-1.35,-0.83,0.01,-0.02,0.89,19468500
-1.35,-0.83,0.01,-0.02,0.89,19472455
-1.35,-0.82,0.01,-0.02,0.89,19476409
-1.35,-0.82,0.00,-0.02,0.89,19480358
-1.35,-0.82,0.01,-0.02,0.89,19484303
-1.35,-0.82,0.01,-0.02,0.89,19488260
-1.35,-0.82,0.02,-0.02,0.89,19492207
-1.35,-0.82,0.02,-0.02,0.89,19496162
-1.35,-0.82,0.02,-0.02,0.89,19500119
-1.35,-0.82,0.01,-0.02,0.89,19504067
-1.35,-0.82,0.01,-0.02,0.89,19508024
-1.35,-0.82,0.01,-0.02,0.89,19511965
-1.36,-0.82,0.01,-0.02,0.89,19515914
-1.36,-0.82,0.01,-0.02,0.89,19519869
-1.36,-0.82,0.01,-0.02,0.89,19523816
-1.36,-0.82,0.01,-0.02,0.89,19527771
-1.35,-0.82,0.01,-0.02,0.89,19531712
-1.35,-0.82,0.01,-0.01,0.89,19535666
-1.35,-0.82,0.01,-0.01,0.89,19539627
-1.35,-0.82,0.01,-0.01,0.89,19543569
-1.34,-0.82,0.01,-0.01,0.89,19547526
-1.34,-0.82,0.01,-0.01,0.89,19551474
-1.34,-0.82,0.01,-0.02,0.89,19555428
-1.34,-0.82,0.01,-0.02,0.89,19559390
-1.34,-0.82,0.01,-0.02,0.89,19563341
-1.34,-0.82,0.01,-0.02,0.89,19567304
-1.34,-0.82,0.01,-0.02,0.89,19571258
-1.34,-0.82,0.02,-0.02,0.89,19575215
-1.33,-0.82,0.02,-0.01,0.89,19579165
-1.33,-0.83,0.02,-0.01,0.89,19583109
-1.33,-0.83,0.02,-0.01,0.89,19587073
-1.33,-0.83,0.01,-0.01,0.89,19591025
-1.33,-0.83,0.01,-0.02,0.89,19594985
-1.33,-0.83,0.01,-0.02,0.90,19598929
-1.33,-0.83,0.01,-0.02,0.89,19602876
-1.33,-0.83,0.02,-0.02,0.90,19606817
-1.32,-0.83,0.03,-0.02,0.89,19610764
-1.32,-0.84,0.03,-0.02,0.90,19614716
-1.32,-0.85,0.03,-0.02,0.89,19618662
-1.32,-0.85,0.02,-0.02,0.89,19622608
-1.33,-0.85,0.02,-0.03,0.89,19626566
-1.33,-0.85,0.01,-0.03,0.89,19630511
-1.33,-0.85,0.00,-0.03,0.89,19634466
-1.34,-0.84,0.00,-0.03,0.89,19638412
-1.34,-0.84,0.01,-0.03,0.89,19642363
-1.34,-0.84,0.01,-0.03,0.89,19646322
-1.34,-0.84,0.02,-0.03,0.89,19650263
-1.34,-0.84,0.02,-0.03,0.89,19654227
-1.34,-0.84,0.02,-0.02,0.89,19658172
-1.34,-0.84,0.01,-0.02,0.89,19662131
-1.34,-0.84,0.01,-0.02,0.89,19666092
-1.35,-0.84,0.00,-0.02,0.89,19670034
-1.35,-0.83,0.00,-0.03,0.89,19673988
-1.35,-0.83,0.01,-0.03,0.89,19677934
-1.35,-0.83,0.01,-0.03,0.89,19681891
-1.35,-0.83,0.02,-0.02,0.89,19685852
-1.35,-0.83,0.02,-0.02,0.89,19689800
-1.35,-0.83,0.01,-0.02,0.89,19693757
-1.35,-0.83,0.01,-0.02,0.89,19697700
-1.35,-0.83,0.00,-0.02,0.89,19701648
-1.35,-0.83,0.00,-0.02,0.89,19705596
-1.35,-0.83,0.01,-0.02,0.89,19709538
-1.35,-0.83,0.01,-0.02,0.89,19713500
-1.35,-0.83,0.01,-0.02,0.89,19717448
-1.35,-0.83,0.01,-0.01,0.89,19721406
-1.34,-0.83,0.01,-0.01,0.89,19725359
-1.34,-0.83,0.01,-0.01,0.89,19729312
-1.34,-0.83,0.01,-0.01,0.89,19733276
-1.33,-0.82,0.01,-0.01,0.89,19737227
-1.33,-0.82,0.02,-0.01,0.89,19741188
-1.33,-0.83,0.02,-0.02,0.89,19745141
-1.33,-0.83,0.02,-0.02,0.89,19749092
-1.33,-0.83,0.02,-0.02,0.89,19753050
-1.33,-0.83,0.02,-0.02,0.90,19756995
-1.32,-0.84,0.01,-0.02,0.89,19760954
-1.32,-0.84,0.01,-0.01,0.89,19764900
-1.32,-0.83,0.01,-0.01,0.89,19768850
-1.32,-0.84,0.02,-0.01,0.89,19772802
-1.32,-0.84,0.02,-0.02,0.89,19776743
-1.32,-0.84,0.02,-0.02,0.89,19780700
-1.32,-0.84,0.02,-0.03,0.89,19784646
-1.32,-0.85,0.02,-0.02,0.89,19788595
-1.32,-0.85,0.02,-0.02,0.89,19792548
-1.32,-0.85,0.02,-0.02,0.89,19796493
-1.32,-0.85,0.02,-0.02,0.89,19800452
-1.32,-0.85,0.02,-0.02,0.89,19804397
-1.32,-0.86,0.02,-0.03,0.89,19808347
-1.33,-0.86,0.02,-0.03,0.89,19812309
-1.33,-0.86,0.01,-0.03,0.89,19816258
-1.34,-0.86,0.01,-0.03,0.89,19820217
-1.34,-0.85,0.01,-0.03,0.89,19824163
-1.34,-0.85,0.01,-0.03,0.89,19828114
-1.34,-0.85,0.01,-0.03,0.89,19832069
-1.35,-0.85,0.01,-0.03,0.89,19836007
-1.35,-0.85,0.01,-0.03,0.89,19839963
-1.35,-0.84,0.01,-0.03,0.89,19843911
-1.35,-0.84,0.01,-0.03,0.89,19847870
-1.35,-0.84,0.01,-0.02,0.89,19851815
-1.35,-0.84,0.00,-0.02,0.89,19855763
-1.35,-0.84,0.00,-0.02,0.89,19859720
-1.35,-0.84,0.01,-0.02,0.89,19863665
-1.35,-0.83,0.01,-0.02,0.89,19867622
-1.35,-0.83,0.01,-0.02,0.89,19871568
-1.35,-0.83,0.01,-0.02,0.89,19875518
-1.35,-0.83,0.01,-0.02,0.89,19879467
-1.35,-0.83,0.01,-0.02,0.89,19883416
-1.35,-0.83,0.01,-0.02,0.89,19887370
-1.35,-0.83,0.00,-0.02,0.89,19891314
-1.35,-0.82,0.00,-0.02,0.89,19895268
-1.35,-0.82,0.01,-0.01,0.89,19899233
-1.34,-0.82,0.01,-0.01,0.89,19903181
-1.34,-0.82,0.01,-0.01,0.89,19907143
-1.34,-0.82,0.01,-0.01,0.89,19911094
-1.33,-0.82,0.01,-0.01,0.89,19915047
-1.33,-0.82,0.02,-0.01,0.89,19919008
-1.33,-0.82,0.02,-0.01,0.89,19922955
-1.32,-0.83,0.02,-0.01,0.89,19926915
-1.32,-0.83,0.02,-0.01,0.89,19930861
-1.32,-0.83,0.02,-0.01,0.89,19934820
-1.32,-0.83,0.02,-0.02,0.89,19938781
-1.32,-0.83,0.02,-0.02,0.89,19942720
-1.32,-0.83,0.02,-0.02,0.89,19946680
-1.32,-0.84,0.02,-0.03,0.89,19950630
-1.32,-0.84,0.02,-0.03,0.89,19954581
-1.32,-0.84,0.03,-0.02,0.89,19958535
-1.32,-0.85,0.03,-0.02,0.89,19962478
-1.32,-0.85,0.03,-0.02,0.89,19966436
-1.33,-0.86,0.02,-0.03,0.89,19970378
-1.33,-0.86,0.02,-0.03,0.89,19974338
-1.33,-0.86,0.01,-0.03,0.89,19978287
-1.33,-0.86,0.01,-0.03,0.89,19982243
-1.34,-0.85,0.01,-0.03,0.89,19986208
-1.34,-0.85,0.01,-0.03,0.89,19990159
-1.34,-0.85,0.01,-0.03,0.89,19994122
-1.34,-0.85,0.01,-0.03,0.89,19998072
-1.35,-0.85,0.01,-0.03,0.89,20002026
-1.35,-0.85,0.01,-0.03,0.89,20005978
-1.35,-0.84,0.00,-0.03,0.89,20009916
-1.36,-0.84,-0.00,-0.03,0.89,20013867
-1.36,-0.84,0.00,-0.02,0.89,20017803
-1.36,-0.83,0.01,-0.02,0.89,20021757
-1.36,-0.83,0.01,-0.02,0.89,20025716
-1.35,-0.83,0.01,-0.02,0.89,20029660
-1.35,-0.83,0.01,-0.02,0.89,20033620
-1.35,-0.83,0.01,-0.02,0.89,20037565
-1.35,-0.83,0.01,-0.02,0.89,20041519
-1.35,-0.83,0.00,-0.01,0.89,20045472
-1.34,-0.83,0.01,-0.02,0.89,20049415
-1.34,-0.82,0.01,-0.02,0.89,20053374
-1.34,-0.82,0.01,-0.02,0.89,20057321
-1.34,-0.82,0.01,-0.02,0.89,20061279
-1.34,-0.82,0.01,-0.01,0.89,20065234
-1.33,-0.82,0.01,-0.01,0.89,20069185
-1.33,-0.82,0.01,-0.01,0.89,20073142
-1.33,-0.82,0.01,-0.01,0.89,20077078
-1.32,-0.82,0.02,-0.01,0.90,20081025
-1.32,-0.83,0.03,-0.01,0.89,20084980
-1.32,-0.83,0.03,-0.01,0.90,20088928
-1.31,-0.84,0.03,-0.01,0.89,20092885
-1.31,-0.84,0.02,-0.01,0.89,20096834
-1.31,-0.84,0.02,-0.01,0.89,20100790
-1.31,-0.84,0.01,-0.02,0.89,20104743
-1.31,-0.84,0.01,-0.02,0.89,20108688
-1.31,-0.84,0.02,-0.03,0.89,20112645
-1.32,-0.85,0.03,-0.03,0.90,20116589
-1.32,-0.85,0.03,-0.03,0.89,20120541
-1.32,-0.86,0.03,-0.03,0.90,20124488
-1.32,-0.86,0.02,-0.03,0.89,20128443
-1.33,-0.86,0.02,-0.03,0.89,20132396
-1.33,-0.86,0.01,-0.03,0.89,20136342
-1.33,-0.86,0.01,-0.03,0.89,20140306
-1.34,-0.86,0.01,-0.03,0.89,20144256
-1.34,-0.86,0.02,-0.03,0.89,20148206
-1.34,-0.86,0.02,-0.03,0.89,20152165
-1.34,-0.86,0.02,-0.03,0.89,20156112
-1.35,-0.86,0.01,-0.03,0.89,20160061
-1.35,-0.86,0.00,-0.03,0.89,20164007
-1.35,-0.85,-0.00,-0.03,0.89,20167949
-1.36,-0.84,-0.01,-0.03,0.89,20171909
-1.36,-0.84,-0.00,-0.03,0.89,20175849
-1.36,-0.84,0.01,-0.02,0.89,20179804
-1.36,-0.84,0.01,-0.02,0.89,20183753
-1.36,-0.84,0.01,-0.02,0.89,20187704
-1.36,-0.84,0.01,-0.02,0.89,20191664
-1.36,-0.83,0.00,-0.02,0.89,20195597
-1.36,-0.83,0.00,-0.02,0.89,20199553
-1.35,-0.83,0.00,-0.02,0.89,20203498
-1.35,-0.82,0.00,-0.01,0.89,20207448
-1.35,-0.82,0.01,-0.01,0.89,20211407
-1.34,-0.82,0.01,-0.01,0.89,20215356
-1.34,-0.82,0.01,-0.01,0.89,20219318
-1.33,-0.82,0.01,-0.01,0.89,20223270
-1.33,-0.82,0.01,-0.01,0.89,20227226
-1.33,-0.81,0.01,-0.01,0.89,20231184
-1.32,-0.82,0.01,-0.01,0.89,20235132
-1.32,-0.82,0.02,-0.01,0.90,20239085
-1.31,-0.82,0.03,-0.01,0.89,20243029
-1.31,-0.83,0.03,-0.01,0.89,20246991
-1.31,-0.83,0.02,-0.02,0.89,20250945
-1.31,-0.83,0.02,-0.02,0.89,20254893
-1.31,-0.83,0.01,-0.02,0.89,20258846
-1.31,-0.83,0.01,-0.02,0.89,20262798
-1.31,-0.84,0.02,-0.02,0.89,20266753
-1.31,-0.84,0.03,-0.03,0.89,20270706
-1.32,-0.85,0.03,-0.03,0.90,20274655
-1.32,-0.85,0.03,-0.03,0.89,20278616
-1.32,-0.86,0.03,-0.03,0.90,20282561
-1.33,-0.86,0.02,-0.03,0.89,20286521
-1.33,-0.86,0.01,-0.03,0.89,20290468
-1.34,-0.86,0.01,-0.03,0.89,20294416
-1.34,-0.85,0.01,-0.03,0.90,20298372
-1.35,-0.86,0.02,-0.03,0.89,20302321
-1.35,-0.86,0.02,-0.03,0.90,20306279
-1.35,-0.86,0.02,-0.03,0.89,20310224
-1.36,-0.86,0.01,-0.03,0.89,20314172
-1.36,-0.85,0.00,-0.03,0.89,20318130
-1.36,-0.85,-0.01,-0.03,0.89,20322073
-1.36,-0.84,-0.01,-0.03,0.89,20326031
-1.36,-0.84,-0.00,-0.02,0.89,20329978
-1.36,-0.83,0.01,-0.02,0.89,20333924
-1.36,-0.83,0.01,-0.01,0.89,20337885
-1.36,-0.83,0.01,-0.01,0.89,20341831
-1.35,-0.83,0.01,-0.01,0.89,20345787
-1.35,-0.83,0.00,-0.01,0.89,20349731
-1.35,-0.82,-0.00,-0.01,0.89,20353677
-1.35,-0.82,-0.00,-0.01,0.89,20357632
-1.34,-0.81,-0.00,-0.01,0.89,20361572
-1.34,-0.81,0.00,-0.01,0.89,20365524
-1.33,-0.81,0.00,-0.01,0.89,20369469
-1.33,-0.80,0.01,-0.01,0.89,20373414
-1.32,-0.80,0.01,-0.01,0.89,20377369
-1.32,-0.81,0.01,-0.01,0.89,20381317
-1.31,-0.81,0.02,-0.01,0.89,20385276
-1.31,-0.81,0.02,-0.00,0.89,20389221
-1.30,-0.81,0.02,-0.01,0.89,20393170
-1.30,-0.82,0.02,-0.01,0.89,20397125
-1.30,-0.82,0.02,-0.02,0.89,20401061
-1.30,-0.83,0.02,-0.02,0.89,20405013
-1.30,-0.83,0.02,-0.02,0.89,20408958
-1.30,-0.83,0.02,-0.03,0.89,20412902
-1.30,-0.84,0.03,-0.03,0.89,20416859
-1.31,-0.84,0.03,-0.03,0.89,20420797
-1.31,-0.85,0.03,-0.03,0.89,20424755
-1.31,-0.85,0.03,-0.04,0.89,20428697
-1.32,-0.86,0.03,-0.04,0.89,20432644
-1.33,-0.86,0.02,-0.04,0.89,20436596
-1.33,-0.86,0.02,-0.04,0.89,20440547
-1.34,-0.86,0.02,-0.03,0.89,20444502
-1.34,-0.87,0.02,-0.03,0.89,20448448
-1.34,-0.87,0.02,-0.03,0.89,20452400
-1.35,-0.87,0.02,-0.03,0.89,20456347
-1.35,-0.87,0.01,-0.03,0.89,20460300
-1.35,-0.86,0.00,-0.03,0.89,20464250
-1.36,-0.86,0.00,-0.03,0.89,20468194
-1.36,-0.85,-0.00,-0.03,0.89,20472146
-1.36,-0.85,-0.00,-0.02,0.89,20476084
-1.36,-0.84,-0.00,-0.02,0.89,20480036
-1.36,-0.84,0.00,-0.02,0.89,20483988
-1.35,-0.83,0.00,-0.02,0.89,20487923
-1.35,-0.83,0.00,-0.02,0.89,20491871
-1.35,-0.83,0.00,-0.01,0.89,20495813
-1.35,-0.82,0.00,-0.01,0.89,20499760
-1.34,-0.82,0.00,-0.00,0.89,20503710
-1.33,-0.82,0.00,-0.00,0.89,20507652
-1.33,-0.81,-0.00,-0.00,0.89,20511603
-1.32,-0.81,0.00,-0.01,0.89,20515544
-1.32,-0.81,0.00,-0.01,0.89,20519489
-1.31,-0.81,0.01,-0.00,0.89,20523440
-1.31,-0.81,0.02,-0.00,0.89,20527383
-1.30,-0.81,0.02,-0.01,0.89,20531334
-1.30,-0.81,0.02,-0.01,0.89,20535279
-1.30,-0.82,0.02,-0.01,0.89,20539228
-1.29,-0.82,0.02,-0.01,0.89,20543188
-1.29,-0.82,0.02,-0.02,0.89,20547134
-1.29,-0.83,0.02,-0.02,0.89,20551091
-1.30,-0.83,0.03,-0.03,0.89,20555035
-1.30,-0.84,0.04,-0.03,0.90,20558983
-1.30,-0.85,0.04,-0.03,0.89,20562943
-1.30,-0.85,0.04,-0.03,0.89,20566885
-1.31,-0.86,0.03,-0.04,0.89,20570844
-1.32,-0.86,0.02,-0.04,0.89,20574788
-1.32,-0.86,0.02,-0.04,0.89,20578741
-1.33,-0.87,0.02,-0.04,0.89,20582683
-1.33,-0.87,0.02,-0.03,0.89,20586626
-1.34,-0.87,0.03,-0.03,0.89,20590581
-1.34,-0.87,0.03,-0.03,0.89,20594527
-1.35,-0.88,0.02,-0.04,0.89,20598484
-1.35,-0.88,0.01,-0.04,0.89,20602431
-1.36,-0.87,0.01,-0.04,0.90,20606370
-1.36,-0.87,0.00,-0.03,0.89,20610326
-1.36,-0.86,-0.00,-0.02,0.89,20614269
-1.36,-0.86,-0.00,-0.02,0.89,20618208
-1.36,-0.85,-0.00,-0.01,0.89,20622158
-1.35,-0.85,0.00,-0.01,0.89,20625881
-1.35,-0.84,-0.00,-0.02,0.89,20629833
-1.35,-0.84,0.00,-0.02,0.89,20633771
-1.35,-0.83,-0.00,-0.01,0.89,20637714
-1.34,-0.83,-0.00,-0.00,0.89,20641666
-1.33,-0.83,-0.00,0.00,0.89,20645602
-1.33,-0.82,-0.00,0.00,0.89,20649554
-1.32,-0.82,-0.00,-0.00,0.89,20653492
-1.31,-0.81,0.00,-0.01,0.89,20657430
-1.31,-0.81,0.01,-0.01,0.89,20661385
-1.30,-0.81,0.01,-0.01,0.89,20665328
-1.30,-0.81,0.01,-0.00,0.89,20669288
-1.29,-0.81,0.01,-0.00,0.89,20673239
-1.29,-0.82,0.01,-0.01,0.89,20677189
-1.29,-0.82,0.01,-0.01,0.89,20681142
-1.29,-0.82,0.02,-0.02,0.89,20685091
-1.29,-0.82,0.03,-0.03,0.90,20689046
-1.29,-0.83,0.03,-0.03,0.90,20692987
-1.29,-0.84,0.04,-0.03,0.90,20696939
-1.30,-0.85,0.04,-0.03,0.89,20700885
-1.30,-0.86,0.04,-0.03,0.89,20704828
-1.31,-0.86,0.03,-0.04,0.89,20708777
-1.32,-0.87,0.02,-0.05,0.89,20712727
-1.33,-0.87,0.02,-0.05,0.89,20716686
-1.33,-0.87,0.02,-0.04,0.89,20720628
-1.34,-0.88,0.03,-0.04,0.89,20724580
-1.34,-0.88,0.03,-0.03,0.89,20728543
-1.35,-0.88,0.03,-0.04,0.89,20732482
-1.35,-0.89,0.02,-0.04,0.89,20736441
-1.36,-0.89,0.01,-0.04,0.89,20740385
-1.36,-0.88,0.01,-0.04,0.89,20744340
-1.37,-0.88,0.00,-0.03,0.89,20748300
-1.37,-0.87,0.00,-0.02,0.89,20752243
-1.37,-0.87,-0.00,-0.01,0.89,20756195
-1.36,-0.86,-0.00,-0.01,0.89,20760130
-1.36,-0.86,-0.00,-0.01,0.89,20764083
-1.36,-0.85,-0.00,-0.01,0.89,20768036
-1.35,-0.85,-0.01,-0.01,0.89,20771984
-1.35,-0.84,-0.01,-0.01,0.89,20775940
-1.34,-0.83,-0.01,-0.00,0.89,20779882
-1.33,-0.83,-0.01,0.00,0.89,20783830
-1.33,-0.82,-0.01,0.00,0.89,20787782
-1.32,-0.81,-0.00,-0.00,0.89,20791719
-1.31,-0.81,0.00,-0.00,0.89,20795669
-1.31,-0.81,0.01,-0.00,0.89,20799610
-1.30,-0.81,0.01,-0.00,0.89,20803555
-1.30,-0.81,0.01,-0.00,0.89,20807507
-1.29,-0.81,0.01,-0.00,0.89,20811446
-1.29,-0.81,0.01,-0.01,0.89,20815399
-1.29,-0.81,0.01,-0.02,0.89,20819347
-1.29,-0.81,0.02,-0.03,0.89,20823297
-1.29,-0.82,0.03,-0.03,0.89,20827249
-1.29,-0.83,0.04,-0.03,0.89,20831194
-1.30,-0.84,0.04,-0.03,0.89,20835140
-1.30,-0.85,0.05,-0.03,0.89,20839078
-1.31,-0.86,0.04,-0.04,0.89,20843033
-1.32,-0.86,0.03,-0.05,0.89,20846986
-1.33,-0.87,0.03,-0.05,0.89,20850933
-1.34,-0.87,0.02,-0.05,0.89,20854891
-1.34,-0.87,0.02,-0.04,0.89,20858838
-1.35,-0.88,0.03,-0.04,0.89,20862788
-1.35,-0.88,0.03,-0.03,0.89,20866737
-1.36,-0.89,0.03,-0.04,0.89,20870683
-1.36,-0.89,0.02,-0.04,0.89,20874641
-1.37,-0.89,0.01,-0.04,0.89,20878587
-1.37,-0.88,0.01,-0.03,0.89,20882537
-1.37,-0.88,0.00,-0.02,0.89,20886479
-1.37,-0.87,-0.00,-0.01,0.89,20890421
-1.37,-0.87,-0.01,-0.01,0.89,20894380
-1.36,-0.86,-0.01,-0.01,0.89,20898324
-1.36,-0.85,-0.01,-0.01,0.89,20902277
-1.35,-0.85,-0.01,-0.01,0.89,20906237
-1.35,-0.84,-0.01,-0.01,0.89,20910182
-1.34,-0.83,-0.01,0.00,0.89,20914136
-1.33,-0.83,-0.01,0.01,0.89,20918082
-1.32,-0.82,-0.01,0.01,0.89,20922035
-1.31,-0.81,-0.01,0.00,0.89,20925985
-1.31,-0.81,-0.00,-0.00,0.89,20929928
-1.30,-0.80,0.00,-0.01,0.89,20933873
-1.30,-0.80,0.01,-0.00,0.89,20937803
-1.29,-0.80,0.01,-0.00,0.89,20941751
-1.29,-0.80,0.01,-0.00,0.89,20945696
-1.28,-0.80,0.01,-0.01,0.89,20949634
-1.28,-0.80,0.01,-0.02,0.89,20953584
-1.28,-0.80,0.02,-0.03,0.90,20957523
-1.29,-0.81,0.03,-0.03,0.89,20961481
-1.29,-0.82,0.04,-0.03,0.90,20965422
-1.30,-0.83,0.05,-0.03,0.90,20969361
-1.30,-0.84,0.05,-0.04,0.90,20973315
-1.31,-0.85,0.04,-0.04,0.90,20977258
-1.32,-0.86,0.03,-0.05,0.90,20981212
-1.33,-0.86,0.03,-0.05,0.89,20985159
-1.34,-0.86,0.02,-0.05,0.90,20989109
-1.35,-0.87,0.03,-0.04,0.89,20993067
-1.35,-0.87,0.03,-0.04,0.89,20997010
-1.36,-0.88,0.03,-0.04,0.89,21000966
-1.36,-0.88,0.03,-0.04,0.89,21004913
-1.37,-0.89,0.03,-0.04,0.89,21008857
-1.37,-0.89,0.02,-0.03,0.89,21012813
-1.37,-0.88,0.01,-0.03,0.89,21016762
-1.37,-0.88,-0.00,-0.02,0.89,21020721
-1.37,-0.87,-0.01,-0.01,0.89,21024666
-1.37,-0.86,-0.01,-0.01,0.89,21028618
-1.36,-0.86,-0.01,-0.01,0.89,21032576
-1.36,-0.85,-0.01,-0.01,0.89,21036523
-1.35,-0.84,-0.01,-0.01,0.89,21040480
-1.34,-0.84,-0.01,0.00,0.89,21044415
-1.33,-0.83,-0.01,0.01,0.89,21048365
-1.32,-0.82,-0.01,0.01,0.89,21052321
-1.31,-0.81,-0.01,0.01,0.89,21056267
-1.31,-0.81,-0.01,0.00,0.89,21060218
-1.30,-0.80,0.00,0.00,0.89,21064150
-1.29,-0.80,0.01,-0.00,0.89,21068093
-1.29,-0.80,0.01,0.00,0.89,21071818
-1.28,-0.80,0.01,-0.00,0.89,21075760
-1.28,-0.80,0.01,-0.01,0.89,21079714
-1.27,-0.80,0.01,-0.02,0.89,21083657
-1.28,-0.80,0.01,-0.02,0.89,21087611
-1.28,-0.80,0.03,-0.03,0.89,21091561
-1.29,-0.81,0.04,-0.03,0.89,21095504
-1.29,-0.83,0.05,-0.04,0.90,21099459
-1.30,-0.84,0.05,-0.04,0.89,21103395
-1.31,-0.85,0.04,-0.05,0.90,21107347
-1.32,-0.86,0.04,-0.05,0.89,21111298
-1.33,-0.86,0.03,-0.05,0.90,21115243
-1.34,-0.87,0.03,-0.05,0.89,21119201
-1.35,-0.87,0.03,-0.04,0.90,21123141
-1.35,-0.88,0.03,-0.04,0.89,21127099
-1.36,-0.88,0.03,-0.04,0.90,21131047
-1.36,-0.89,0.03,-0.04,0.89,21134994
-1.37,-0.89,0.03,-0.03,0.90,21138947
-1.37,-0.89,0.02,-0.03,0.89,21142892
-1.37,-0.89,0.01,-0.02,0.89,21146849
-1.37,-0.88,0.00,-0.02,0.89,21150790
-1.36,-0.88,-0.01,-0.01,0.89,21154736
-1.36,-0.87,-0.01,-0.01,0.89,21158690
-1.35,-0.86,-0.01,-0.01,0.89,21162635
-1.35,-0.85,-0.01,-0.01,0.89,21166585
-1.34,-0.84,-0.01,-0.00,0.89,21170529
-1.33,-0.84,-0.01,0.00,0.89,21174464
-1.32,-0.83,-0.01,0.01,0.89,21178419
-1.31,-0.82,-0.01,0.01,0.89,21182364
-1.30,-0.81,-0.01,0.01,0.89,21186319
-1.29,-0.80,-0.01,0.01,0.89,21190255
-1.29,-0.80,-0.00,0.00,0.89,21194197
-1.28,-0.80,0.00,-0.00,0.89,21198140
-1.28,-0.80,0.00,-0.00,0.89,21202077
-1.27,-0.79,0.01,-0.01,0.89,21206030
-1.27,-0.79,0.01,-0.01,0.89,21209966
-1.27,-0.80,0.01,-0.02,0.89,21213909
-1.27,-0.80,0.02,-0.03,0.89,21217858
-1.28,-0.80,0.03,-0.03,0.89,21221798
-1.28,-0.81,0.04,-0.04,0.90,21225750
-1.29,-0.82,0.05,-0.04,0.90,21229685
-1.30,-0.83,0.05,-0.05,0.90,21233629
-1.31,-0.84,0.05,-0.05,0.90,21237583
-1.32,-0.85,0.04,-0.06,0.90,21241520
-1.33,-0.86,0.03,-0.06,0.89,21245474
-1.34,-0.86,0.03,-0.05,0.90,21249415
-1.35,-0.87,0.02,-0.05,0.89,21253369
-1.36,-0.87,0.03,-0.04,0.90,21257320
-1.37,-0.88,0.03,-0.04,0.90,21261262
-1.37,-0.88,0.03,-0.04,0.90,21265210
-1.37,-0.89,0.03,-0.03,0.89,21269154
-1.37,-0.89,0.02,-0.02,0.89,21273108
-1.37,-0.88,0.00,-0.02,0.89,21277051
-1.37,-0.88,-0.01,-0.01,0.89,21281002
-1.36,-0.87,-0.01,-0.01,0.89,21284951
-1.36,-0.86,-0.01,-0.00,0.89,21288892
-1.35,-0.85,-0.01,-0.00,0.89,21292836
-1.34,-0.84,-0.01,0.00,0.89,21296785
-1.33,-0.84,-0.00,0.01,0.89,21300729
-1.32,-0.83,-0.01,0.01,0.89,21304690
-1.31,-0.82,-0.01,0.01,0.89,21308636
-1.30,-0.81,-0.01,0.01,0.89,21312579
-1.29,-0.80,-0.01,0.01,0.89,21316535
-1.28,-0.79,-0.01,0.00,0.89,21320467
-1.28,-0.79,-0.00,0.00,0.89,21324413
-1.27,-0.79,0.00,-0.00,0.89,21328350
-1.27,-0.79,0.01,-0.01,0.89,21332298
-1.27,-0.79,0.01,-0.01,0.89,21336254
-1.27,-0.79,0.01,-0.02,0.89,21340204
-1.27,-0.79,0.02,-0.03,0.89,21344156
-1.28,-0.80,0.03,-0.03,0.90,21348095
-1.28,-0.81,0.04,-0.04,0.90,21352045
-1.29,-0.82,0.05,-0.04,0.90,21355988
-1.30,-0.84,0.05,-0.05,0.90,21359928
-1.31,-0.85,0.05,-0.06,0.90,21363882
-1.32,-0.86,0.04,-0.06,0.90,21367820
-1.34,-0.86,0.03,-0.06,0.89,21371779
-1.35,-0.87,0.03,-0.05,0.89,21375722
-1.35,-0.87,0.03,-0.05,0.89,21379677
-1.36,-0.88,0.03,-0.04,0.89,21383633
-1.37,-0.88,0.03,-0.04,0.89,21387581
-1.37,-0.89,0.03,-0.04,0.89,21391537
-1.38,-0.89,0.03,-0.03,0.89,21395484
-1.38,-0.89,0.02,-0.02,0.89,21399435
-1.37,-0.89,0.01,-0.01,0.89,21403394
-1.37,-0.88,-0.01,-0.01,0.89,21407337
-1.36,-0.87,-0.01,-0.00,0.89,21411292
-1.36,-0.86,-0.02,-0.00,0.89,21415232
-1.35,-0.85,-0.01,0.00,0.89,21419178
-1.34,-0.85,-0.01,0.01,0.89,21423137
-1.33,-0.84,-0.01,0.01,0.89,21427083
-1.32,-0.83,-0.01,0.01,0.89,21431033
-1.31,-0.82,-0.01,0.01,0.89,21434978
-1.30,-0.81,-0.02,0.01,0.89,21438933
-1.29,-0.80,-0.02,0.01,0.89,21442883
-1.28,-0.80,-0.01,0.00,0.89,21446816
-1.27,-0.79,-0.00,-0.00,0.89,21450762
-1.27,-0.79,0.00,-0.00,0.89,21454705
-1.27,-0.79,0.01,-0.01,0.89,21458658
-1.27,-0.79,0.01,-0.02,0.89,21462615
-1.27,-0.79,0.01,-0.03,0.89,21466561
-1.27,-0.79,0.02,-0.03,0.89,21470521
-1.28,-0.80,0.03,-0.03,0.90,21474459
-1.29,-0.81,0.04,-0.04,0.90,21478406
-1.29,-0.82,0.05,-0.05,0.90,21482351
-1.31,-0.83,0.05,-0.06,0.90,21486303
-1.32,-0.85,0.05,-0.06,0.90,21490254
-1.33,-0.85,0.04,-0.06,0.90,21494188
-1.34,-0.86,0.03,-0.06,0.90,21498134
-1.35,-0.87,0.03,-0.05,0.89,21502076
-1.36,-0.87,0.02,-0.04,0.89,21506026
-1.37,-0.87,0.03,-0.04,0.89,21509984
-1.37,-0.88,0.03,-0.04,0.89,21513933
-1.38,-0.89,0.03,-0.04,0.89,21517889
-1.38,-0.89,0.03,-0.03,0.89,21521836
-1.38,-0.89,0.02,-0.02,0.89,21525788
-1.37,-0.88,0.00,-0.01,0.89,21529735
-1.36,-0.87,-0.01,-0.00,0.88,21533675
-1.36,-0.86,-0.02,0.00,0.89,21537628
-1.35,-0.85,-0.02,0.00,0.88,21541571
-1.34,-0.84,-0.01,0.01,0.89,21545517
-1.33,-0.83,-0.01,0.01,0.89,21549470
-1.32,-0.83,-0.01,0.01,0.89,21553410
-1.30,-0.82,-0.01,0.01,0.89,21557364
-1.29,-0.81,-0.01,0.01,0.89,21561308
-1.28,-0.80,-0.01,0.01,0.89,21565254
-1.28,-0.79,-0.02,0.00,0.89,21569200
-1.27,-0.79,-0.01,0.00,0.89,21573143
-1.27,-0.78,-0.00,-0.00,0.89,21577091
-1.26,-0.78,0.01,-0.01,0.89,21581041
-1.26,-0.78,0.01,-0.02,0.89,21584990
-1.27,-0.78,0.02,-0.03,0.90,21588946
-1.27,-0.79,0.02,-0.03,0.89,21592891
-1.28,-0.80,0.03,-0.04,0.89,21596845
-1.28,-0.80,0.03,-0.04,0.90,21600791
-1.29,-0.81,0.04,-0.05,0.89,21604744
-1.31,-0.83,0.05,-0.06,0.90,21608695
-1.32,-0.84,0.05,-0.06,0.90,21612644
-1.33,-0.85,0.05,-0.06,0.90,21616600
-1.35,-0.85,0.04,-0.06,0.89,21620542
-1.36,-0.86,0.03,-0.05,0.89,21624489
-1.37,-0.86,0.03,-0.05,0.89,21628442
-1.37,-0.87,0.03,-0.04,0.90,21632386
-1.38,-0.87,0.03,-0.04,0.89,21636345
-1.38,-0.88,0.03,-0.03,0.90,21640290
-1.38,-0.88,0.03,-0.02,0.89,21644237
-1.38,-0.88,0.02,-0.02,0.89,21648189
-1.37,-0.88,0.01,-0.01,0.89,21652137
-1.37,-0.87,-0.00,-0.00,0.89,21656083
-1.36,-0.86,-0.02,0.00,0.88,21660024
-1.35,-0.85,-0.02,0.01,0.89,21663984
-1.34,-0.84,-0.02,0.01,0.88,21667933
-1.33,-0.83,-0.01,0.01,0.89,21671883
-1.31,-0.82,-0.01,0.02,0.89,21675837
-1.30,-0.82,-0.01,0.01,0.89,21679776
-1.29,-0.81,-0.01,0.01,0.89,21683734
-1.28,-0.80,-0.01,0.01,0.89,21687674
-1.27,-0.79,-0.02,0.00,0.89,21691621
-1.27,-0.78,-0.01,0.00,0.89,21695570
-1.26,-0.78,-0.01,-0.01,0.89,21699513
-1.26,-0.78,0.00,-0.01,0.89,21703469
-1.26,-0.78,0.01,-0.02,0.89,21707413
-1.27,-0.78,0.02,-0.03,0.89,21711367
-1.27,-0.79,0.03,-0.03,0.90,21715327
-1.28,-0.79,0.03,-0.04,0.89,21719272
-1.29,-0.80,0.04,-0.04,0.90,21723220
-1.30,-0.81,0.04,-0.05,0.90,21727164
-1.31,-0.82,0.04,-0.06,0.90,21731115
-1.32,-0.83,0.05,-0.06,0.90,21735070
-1.34,-0.84,0.04,-0.06,0.90,21739018
-1.35,-0.85,0.04,-0.06,0.89,21742973
-1.36,-0.86,0.03,-0.05,0.90,21746908
-1.37,-0.86,0.03,-0.05,0.89,21750853
-1.38,-0.87,0.03,-0.04,0.90,21754805
-1.38,-0.87,0.03,-0.04,0.89,21758749
-1.38,-0.88,0.03,-0.03,0.89,21762711
-1.38,-0.88,0.03,-0.02,0.89,21766659
-1.38,-0.88,0.02,-0.01,0.89,21770611
-1.37,-0.87,0.01,-0.00,0.89,21774555
-1.36,-0.87,-0.01,-0.00,0.89,21778503
-1.35,-0.86,-0.01,0.00,0.89,21782452
-1.34,-0.85,-0.02,0.01,0.89,21786397
-1.33,-0.84,-0.02,0.01,0.89,21790353
-1.32,-0.83,-0.02,0.02,0.88,21794312
-1.31,-0.82,-0.01,0.02,0.89,21798253
-1.29,-0.81,-0.01,0.02,0.89,21802205
-1.28,-0.80,-0.01,0.01,0.89,21806146
-1.27,-0.79,-0.01,0.01,0.89,21810105
-1.27,-0.78,-0.02,0.00,0.89,21814041
-1.26,-0.78,-0.01,0.00,0.89,21817981
-1.26,-0.77,-0.01,-0.01,0.89,21821939
-1.25,-0.77,-0.00,-0.02,0.89,21825883
-1.26,-0.77,0.01,-0.03,0.89,21829841
-1.26,-0.77,0.02,-0.03,0.89,21833788
-1.27,-0.78,0.03,-0.04,0.89,21837739
-1.28,-0.79,0.04,-0.04,0.90,21841693
-1.29,-0.80,0.04,-0.05,0.89,21845634
-1.30,-0.81,0.04,-0.06,0.90,21849578
-1.32,-0.82,0.04,-0.07,0.90,21853524
-1.33,-0.83,0.04,-0.06,0.90,21857468
-1.34,-0.84,0.04,-0.06,0.90,21861418
-1.36,-0.85,0.04,-0.06,0.90,21865359
-1.37,-0.86,0.04,-0.05,0.90,21869312
-1.37,-0.86,0.04,-0.05,0.90,21873256
-1.38,-0.87,0.03,-0.04,0.89,21877205
-1.38,-0.87,0.03,-0.03,0.90,21881161
-1.38,-0.88,0.02,-0.02,0.89,21885107
-1.38,-0.87,0.01,-0.01,0.89,21889066
-1.38,-0.87,0.01,-0.00,0.89,21893007
-1.37,-0.86,-0.00,0.00,0.89,21896950
-1.36,-0.86,-0.01,0.01,0.89,21900906
-1.35,-0.85,-0.01,0.01,0.89,21904848
-1.33,-0.84,-0.01,0.01,0.89,21908804
-1.32,-0.83,-0.02,0.02,0.89,21912749
-1.31,-0.82,-0.02,0.02,0.89,21916697
-1.30,-0.80,-0.02,0.02,0.89,21920646
-1.28,-0.79,-0.02,0.01,0.89,21924594
-1.28,-0.78,-0.02,0.01,0.89,21928554
-1.27,-0.77,-0.02,0.00,0.89,21932489
-1.26,-0.77,-0.01,-0.00,0.89,21936435
-1.26,-0.76,-0.00,-0.01,0.89,21940391
-1.26,-0.76,0.00,-0.02,0.89,21944336
-1.26,-0.76,0.01,-0.03,0.89,21948294
-1.27,-0.77,0.02,-0.03,0.89,21952242
-1.27,-0.77,0.03,-0.04,0.90,21956190
-1.28,-0.78,0.04,-0.04,0.90,21960140
-1.29,-0.79,0.04,-0.05,0.90,21964085
-1.31,-0.80,0.05,-0.06,0.90,21968026
-1.32,-0.82,0.05,-0.06,0.90,21971964
-1.33,-0.83,0.05,-0.06,0.90,21975919
-1.35,-0.84,0.04,-0.06,0.90,21979866
-1.36,-0.84,0.04,-0.06,0.90,21983815
-1.37,-0.85,0.03,-0.05,0.90,21987770
-1.38,-0.86,0.03,-0.05,0.90,21991715
-1.39,-0.86,0.03,-0.04,0.90,21995669
-1.39,-0.87,0.03,-0.03,0.89,21999613
-1.39,-0.87,0.03,-0.02,0.89,22003561
-1.39,-0.87,0.02,-0.01,0.89,22007520
-1.38,-0.87,0.01,-0.01,0.89,22011462
-1.37,-0.87,0.00,0.00,0.89,22015409
-1.36,-0.86,-0.01,0.01,0.89,22019355
-1.35,-0.85,-0.01,0.01,0.89,22023315
-1.34,-0.84,-0.01,0.02,0.89,22027277
-1.32,-0.83,-0.01,0.02,0.89,22031214
-1.31,-0.82,-0.01,0.02,0.89,22035170
-1.30,-0.81,-0.02,0.02,0.89,22039110
-1.28,-0.80,-0.02,0.01,0.89,22043050
-1.27,-0.79,-0.02,0.01,0.89,22047003
-1.27,-0.78,-0.02,0.00,0.89,22050943
-1.26,-0.77,-0.02,-0.00,0.89,22054898
-1.26,-0.77,-0.01,-0.01,0.89,22058846
-1.26,-0.76,-0.00,-0.02,0.89,22062792
-1.26,-0.76,0.01,-0.03,0.89,22066743
-1.27,-0.77,0.02,-0.03,0.89,22070690
-1.27,-0.77,0.03,-0.04,0.89,22074649
-1.28,-0.78,0.04,-0.04,0.90,22078588
-1.29,-0.79,0.04,-0.05,0.90,22082537
-1.31,-0.81,0.04,-0.06,0.90,22086486
-1.32,-0.82,0.04,-0.06,0.90,22090427
-1.34,-0.83,0.04,-0.06,0.89,22094388
-1.35,-0.83,0.04,-0.06,0.90,22098331
-1.36,-0.84,0.04,-0.05,0.89,22102289
-1.37,-0.85,0.03,-0.05,0.90,22106232
-1.38,-0.86,0.03,-0.05,0.89,22110180
-1.39,-0.86,0.03,-0.04,0.90,22114132
-1.39,-0.87,0.03,-0.03,0.89,22118077
-1.39,-0.87,0.03,-0.02,0.89,22122042
-1.38,-0.87,0.02,-0.01,0.89,22125989
-1.38,-0.87,0.01,-0.00,0.89,22129939
-1.37,-0.86,-0.00,0.00,0.89,22133888
-1.36,-0.85,-0.01,0.01,0.89,22137829
-1.34,-0.84,-0.01,0.01,0.89,22141789
-1.33,-0.83,-0.02,0.02,0.89,22145737
-1.32,-0.82,-0.02,0.02,0.89,22149683
-1.30,-0.81,-0.01,0.02,0.89,22153634
-1.29,-0.80,-0.01,0.02,0.89,22157581
-1.28,-0.79,-0.02,0.01,0.89,22161533
-1.27,-0.78,-0.02,0.01,0.89,22165479
-1.26,-0.77,-0.02,0.00,0.89,22169424
-1.26,-0.76,-0.02,-0.01,0.89,22173381
-1.26,-0.76,-0.01,-0.01,0.89,22177336
-1.26,-0.75,-0.00,-0.02,0.89,22181296
-1.26,-0.75,0.01,-0.03,0.89,22185242
-1.27,-0.76,0.02,-0.03,0.89,22189195
-1.28,-0.77,0.03,-0.04,0.89,22193149
-1.29,-0.78,0.04,-0.05,0.90,22197087
-1.30,-0.79,0.04,-0.06,0.89,22201041
-1.31,-0.80,0.05,-0.06,0.90,22204979
-1.33,-0.81,0.04,-0.06,0.89,22208934
-1.34,-0.82,0.04,-0.06,0.90,22212889
-1.35,-0.83,0.04,-0.06,0.89,22216834
-1.36,-0.84,0.04,-0.05,0.89,22220779
-1.37,-0.85,0.04,-0.05,0.90,22224716
-1.38,-0.85,0.04,-0.05,0.90,22228663
-1.39,-0.86,0.04,-0.04,0.90,22232613
-1.39,-0.87,0.03,-0.03,0.89,22236559
-1.39,-0.87,0.03,-0.02,0.90,22240516
-1.38,-0.87,0.02,-0.01,0.89,22244460
-1.38,-0.86,0.01,0.00,0.89,22248404
-1.37,-0.86,-0.01,0.01,0.89,22252358
-1.35,-0.85,-0.01,0.01,0.89,22256310
-1.34,-0.84,-0.02,0.02,0.89,22260267
-1.32,-0.83,-0.02,0.02,0.89,22264207
-1.31,-0.82,-0.02,0.02,0.89,22268158
-1.30,-0.81,-0.02,0.02,0.89,22272103
-1.28,-0.80,-0.01,0.02,0.89,22276043
-1.27,-0.79,-0.01,0.01,0.89,22280003
-1.27,-0.78,-0.02,0.00,0.89,22283938
-1.26,-0.77,-0.02,-0.00,0.89,22287890
-1.26,-0.76,-0.01,-0.01,0.89,22291842
-1.26,-0.76,-0.01,-0.02,0.89,22295796
-1.27,-0.75,-0.00,-0.03,0.89,22299748
-1.27,-0.76,0.01,-0.04,0.89,22303695
-1.28,-0.76,0.03,-0.04,0.90,22307655
-1.29,-0.77,0.04,-0.04,0.90,22311603
-1.30,-0.78,0.04,-0.05,0.90,22315541
-1.31,-0.80,0.05,-0.06,0.90,22319486
-1.33,-0.81,0.05,-0.07,0.90,22323427
-1.34,-0.82,0.04,-0.06,0.90,22327378
-1.35,-0.83,0.04,-0.06,0.90,22331330
-1.37,-0.84,0.04,-0.05,0.90,22335282
-1.38,-0.84,0.04,-0.05,0.90,22339229
-1.39,-0.85,0.04,-0.05,0.89,22343171
-1.39,-0.86,0.04,-0.04,0.90,22347124
-1.39,-0.87,0.03,-0.03,0.89,22351071
-1.39,-0.87,0.03,-0.02,0.89,22355017
-1.39,-0.87,0.02,-0.01,0.89,22358978
-1.38,-0.87,0.01,-0.00,0.89,22362919
-1.37,-0.86,-0.00,0.00,0.89,22366873
-1.36,-0.85,-0.01,0.01,0.89,22370811
-1.35,-0.84,-0.01,0.02,0.89,22374761
-1.33,-0.83,-0.01,0.02,0.89,22378707
-1.31,-0.82,-0.02,0.03,0.89,22382647
-1.30,-0.81,-0.02,0.03,0.89,22386599
-1.29,-0.80,-0.02,0.02,0.89,22390538
-1.27,-0.79,-0.02,0.01,0.89,22394491
-1.26,-0.78,-0.02,0.01,0.89,22398445
-1.26,-0.77,-0.02,0.00,0.89,22402385
-1.25,-0.77,-0.01,-0.01,0.89,22406346
-1.25,-0.76,-0.01,-0.02,0.89,22410294
-1.26,-0.76,0.00,-0.03,0.89,22414239
-1.26,-0.76,0.01,-0.04,0.89,22418199
-1.27,-0.76,0.02,-0.04,0.89,22422144
-1.28,-0.77,0.03,-0.05,0.89,22426101
-1.29,-0.78,0.04,-0.05,0.90,22430041
-1.30,-0.79,0.04,-0.06,0.89,22433988
-1.32,-0.80,0.05,-0.07,0.90,22437933
-1.34,-0.82,0.05,-0.07,0.90,22441875
-1.35,-0.83,0.04,-0.06,0.90,22445829
-1.36,-0.84,0.04,-0.06,0.89,22449769
-1.37,-0.84,0.04,-0.05,0.89,22453727
-1.38,-0.85,0.04,-0.05,0.89,22457679
-1.39,-0.86,0.03,-0.04,0.90,22461624
-1.39,-0.86,0.03,-0.03,0.89,22465573
-1.39,-0.87,0.03,-0.02,0.89,22469518
-1.39,-0.87,0.02,-0.01,0.90,22473475
-1.38,-0.87,0.01,-0.00,0.89,22477417
-1.37,-0.86,0.00,0.00,0.89,22481369
-1.36,-0.86,-0.00,0.01,0.89,22485322
-1.34,-0.85,-0.01,0.02,0.89,22489260
-1.33,-0.84,-0.01,0.02,0.88,22493224
-1.31,-0.83,-0.02,0.03,0.89,22497172
-1.30,-0.82,-0.02,0.02,0.88,22501120
-1.28,-0.81,-0.02,0.02,0.89,22505077
-1.27,-0.80,-0.02,0.01,0.89,22509018
-1.26,-0.79,-0.02,0.01,0.89,22512968
-1.25,-0.78,-0.02,0.01,0.89,22516909
-1.25,-0.77,-0.01,-0.00,0.89,22520853
-1.25,-0.76,-0.01,-0.02,0.89,22524812
-1.25,-0.76,0.00,-0.03,0.89,22528751
-1.26,-0.76,0.01,-0.04,0.90,22532700
-1.27,-0.77,0.02,-0.04,0.89,22536644
-1.28,-0.77,0.03,-0.05,0.90,22540590
-1.29,-0.78,0.04,-0.05,0.90,22544535
-1.30,-0.79,0.04,-0.06,0.90,22548470
-1.32,-0.80,0.04,-0.07,0.90,22552421
-1.34,-0.82,0.05,-0.07,0.90,22556363
-1.35,-0.83,0.04,-0.06,0.90,22560310
-1.36,-0.84,0.04,-0.06,0.90,22564262
-1.37,-0.85,0.04,-0.05,0.90,22568202
-1.38,-0.86,0.04,-0.05,0.90,22572151
-1.39,-0.86,0.04,-0.04,0.89,22576097
-1.39,-0.87,0.04,-0.03,0.89,22580043
-1.39,-0.88,0.03,-0.02,0.89,22583989
-1.39,-0.88,0.02,-0.01,0.89,22587935
-1.38,-0.87,0.01,-0.00,0.89,22591889
-1.37,-0.87,0.00,0.00,0.89,22595831
-1.36,-0.86,-0.00,0.01,0.89,22599781
-1.34,-0.85,-0.01,0.02,0.89,22603724
-1.33,-0.84,-0.01,0.02,0.89,22607671
-1.31,-0.83,-0.02,0.03,0.89,22611624
-1.29,-0.82,-0.02,0.03,0.89,22615571
-1.28,-0.81,-0.02,0.02,0.89,22619527
-1.27,-0.80,-0.02,0.02,0.89,22623470
-1.26,-0.79,-0.02,0.01,0.89,22627418
-1.25,-0.78,-0.02,0.01,0.89,22631372
-1.25,-0.77,-0.01,-0.01,0.89,22635315
-1.25,-0.76,-0.01,-0.02,0.89,22639271
-1.25,-0.76,-0.00,-0.03,0.89,22643214
-1.26,-0.76,0.01,-0.04,0.89,22647160
-1.26,-0.77,0.02,-0.04,0.89,22651115
-1.27,-0.77,0.03,-0.05,0.89,22655057
-1.29,-0.78,0.04,-0.06,0.90,22659011
-1.30,-0.79,0.04,-0.07,0.90,22662950
-1.32,-0.81,0.05,-0.07,0.90,22666900
-1.33,-0.82,0.05,-0.07,0.90,22670849
-1.35,-0.83,0.04,-0.06,0.90,22674784
-1.36,-0.84,0.04,-0.06,0.89,22678738
-1.37,-0.85,0.04,-0.05,0.90,22682675
-1.38,-0.86,0.04,-0.05,0.90,22686624
-1.39,-0.86,0.04,-0.04,0.90,22690579
-1.39,-0.87,0.04,-0.03,0.90,22694523
-1.39,-0.87,0.03,-0.02,0.90,22698478
-1.38,-0.88,0.02,-0.01,0.89,22702427
-1.37,-0.87,0.01,0.00,0.89,22706149
-1.36,-0.87,0.00,0.00,0.89,22710098
-1.35,-0.86,-0.00,0.01,0.89,22714040
-1.34,-0.85,-0.01,0.02,0.89,22717994
-1.32,-0.84,-0.01,0.03,0.89,22721938
-1.30,-0.83,-0.02,0.03,0.88,22725877
-1.29,-0.82,-0.02,0.03,0.89,22729826
-1.27,-0.81,-0.02,0.02,0.88,22733772
-1.26,-0.80,-0.02,0.02,0.89,22737730
-1.25,-0.79,-0.02,0.01,0.89,22741669
-1.25,-0.77,-0.02,0.00,0.89,22745620
-1.24,-0.77,-0.02,-0.01,0.89,22749567
-1.24,-0.76,-0.01,-0.02,0.89,22753512
-1.25,-0.76,0.00,-0.03,0.89,22757465
-1.26,-0.76,0.01,-0.04,0.89,22761412
-1.27,-0.77,0.02,-0.05,0.89,22765372
-1.28,-0.77,0.03,-0.05,0.89,22769315
-1.29,-0.78,0.04,-0.06,0.90,22773255
-1.31,-0.79,0.04,-0.07,0.90,22777217
-1.32,-0.81,0.04,-0.07,0.90,22781159
-1.34,-0.82,0.04,-0.07,0.90,22785109
-1.35,-0.83,0.04,-0.06,0.90,22789052
-1.36,-0.84,0.04,-0.06,0.90,22792995
-1.37,-0.84,0.04,-0.05,0.90,22796948
-1.38,-0.85,0.04,-0.05,0.90,22800891
-1.39,-0.86,0.04,-0.04,0.90,22804842
-1.39,-0.86,0.03,-0.03,0.89,22808794
-1.39,-0.87,0.03,-0.02,0.89,22812753
-1.38,-0.87,0.02,-0.01,0.89,22816710
-1.37,-0.86,0.01,-0.00,0.89,22820651
-1.36,-0.86,0.00,0.01,0.89,22824602
-1.35,-0.85,-0.01,0.02,0.89,22828544
-1.33,-0.84,-0.01,0.02,0.89,22832492
-1.32,-0.83,-0.02,0.03,0.89,22836450
-1.30,-0.82,-0.02,0.03,0.89,22840391
-1.29,-0.81,-0.02,0.02,0.89,22844358
-1.27,-0.80,-0.02,0.02,0.89,22848302
-1.26,-0.78,-0.02,0.01,0.89,22852255
-1.25,-0.78,-0.02,0.01,0.89,22856201
-1.25,-0.77,-0.01,-0.00,0.89,22860143
-1.25,-0.76,-0.01,-0.01,0.89,22864095
-1.25,-0.76,-0.00,-0.02,0.89,22868033
-1.25,-0.76,0.01,-0.03,0.89,22871984
-1.26,-0.76,0.02,-0.04,0.89,22875935
-1.27,-0.77,0.03,-0.05,0.89,22879882
-1.28,-0.78,0.03,-0.05,0.89,22883844
-1.30,-0.79,0.04,-0.06,0.89,22887791
-1.31,-0.80,0.04,-0.07,0.90,22891740
-1.33,-0.81,0.04,-0.07,0.90,22895681
-1.35,-0.82,0.04,-0.07,0.90,22899624
-1.36,-0.83,0.04,-0.06,0.90,22903572
-1.37,-0.84,0.04,-0.06,0.90,22907516
-1.38,-0.85,0.04,-0.05,0.89,22911472
-1.39,-0.85,0.04,-0.04,0.90,22915414
-1.39,-0.86,0.03,-0.03,0.90,22919362
-1.39,-0.87,0.03,-0.02,0.90,22923314
-1.39,-0.87,0.02,-0.01,0.89,22927258
-1.38,-0.87,0.02,-0.00,0.89,22931209
-1.37,-0.86,0.01,0.00,0.89,22935146
-1.36,-0.86,0.00,0.01,0.89,22939095
-1.34,-0.85,-0.00,0.02,0.89,22943045
-1.32,-0.84,-0.01,0.03,0.89,22946994
-1.31,-0.83,-0.02,0.03,0.89,22950951
-1.29,-0.82,-0.02,0.03,0.89,22954893
-1.27,-0.81,-0.02,0.02,0.89,22958841
-1.26,-0.80,-0.02,0.02,0.89,22962781
-1.25,-0.79,-0.02,0.01,0.89,22966725
-1.24,-0.78,-0.02,0.00,0.89,22970679
-1.24,-0.77,-0.01,-0.01,0.89,22974619
-1.24,-0.77,-0.00,-0.02,0.89,22978561
-1.25,-0.77,0.00,-0.03,0.89,22982510
-1.25,-0.77,0.01,-0.04,0.89,22986459
-1.26,-0.77,0.02,-0.05,0.89,22990413
-1.27,-0.78,0.03,-0.05,0.89,22994367
-1.29,-0.79,0.04,-0.06,0.90,22998311
-1.30,-0.80,0.04,-0.07,0.90,23002252
-1.32,-0.81,0.05,-0.07,0.90,23006200
-1.34,-0.82,0.05,-0.07,0.90,23010155
-1.35,-0.83,0.04,-0.06,0.90,23014099
-1.36,-0.84,0.04,-0.06,0.89,23018061
-1.37,-0.85,0.04,-0.05,0.90,23022001
-1.38,-0.85,0.04,-0.05,0.89,23025946
-1.39,-0.86,0.04,-0.04,0.90,23029897
-1.39,-0.87,0.04,-0.03,0.89,23033839
-1.39,-0.87,0.03,-0.02,0.89,23037799
-1.38,-0.87,0.02,-0.01,0.89,23041747
-1.38,-0.87,0.01,0.00,0.89,23045689
-1.36,-0.87,0.00,0.01,0.89,23049647
-1.35,-0.86,-0.00,0.02,0.89,23053586
-1.33,-0.85,-0.01,0.03,0.89,23057542
-1.32,-0.84,-0.01,0.03,0.89,23061476
-1.30,-0.83,-0.01,0.03,0.89,23065421
-1.28,-0.82,-0.02,0.03,0.89,23069381
-1.27,-0.81,-0.01,0.02,0.89,23073325
-1.26,-0.80,-0.02,0.02,0.89,23077288
-1.25,-0.80,-0.01,0.01,0.89,23081233
-1.24,-0.79,-0.01,-0.00,0.89,23085179
-1.24,-0.78,-0.01,-0.02,0.89,23089139
-1.25,-0.78,-0.00,-0.03,0.89,23093085
-1.25,-0.78,0.01,-0.04,0.89,23097043
-1.26,-0.78,0.02,-0.04,0.89,23100987
-1.27,-0.79,0.03,-0.05,0.89,23104933
-1.29,-0.80,0.04,-0.06,0.90,23108883
-1.30,-0.81,0.04,-0.07,0.89,23112821
-1.32,-0.82,0.04,-0.07,0.90,23116768
-1.34,-0.83,0.04,-0.07,0.89,23120721
-1.35,-0.84,0.04,-0.07,0.89,23124668
-1.37,-0.85,0.04,-0.06,0.89,23128620
-1.38,-0.86,0.04,-0.05,0.89,23132565
-1.39,-0.87,0.04,-0.05,0.89,23136519
-1.39,-0.87,0.04,-0.04,0.90,23140469
-1.39,-0.88,0.03,-0.03,0.89,23144426
-1.39,-0.88,0.03,-0.02,0.89,23148370
-1.39,-0.88,0.02,-0.01,0.89,23152321
-1.38,-0.88,0.01,0.00,0.89,23156283
-1.37,-0.88,0.00,0.01,0.89,23160225
-1.35,-0.87,-0.00,0.02,0.89,23164181
-1.34,-0.86,-0.01,0.03,0.89,23168127
-1.32,-0.85,-0.01,0.03,0.89,23172079
-1.30,-0.84,-0.02,0.03,0.89,23176038
-1.29,-0.83,-0.02,0.03,0.89,23179982
-1.27,-0.82,-0.02,0.02,0.88,23183944
-1.26,-0.80,-0.02,0.02,0.89,23187885
-1.25,-0.79,-0.02,0.01,0.89,23191841
-1.24,-0.78,-0.02,0.00,0.89,23195796
-1.24,-0.77,-0.01,-0.01,0.89,23199737
-1.24,-0.77,-0.01,-0.02,0.89,23203691
-1.25,-0.77,0.00,-0.03,0.89,23207634
-1.25,-0.77,0.01,-0.04,0.89,23211590
-1.26,-0.78,0.03,-0.05,0.89,23215551
-1.28,-0.78,0.03,-0.06,0.89,23219497
-1.29,-0.80,0.04,-0.06,0.90,23223445
-1.31,-0.81,0.04,-0.07,0.90,23227392
-1.33,-0.82,0.04,-0.07,0.90,23231345
-1.34,-0.83,0.04,-0.07,0.89,23235305
-1.36,-0.84,0.04,-0.06,0.90,23239243
-1.37,-0.85,0.04,-0.06,0.89,23243196
-1.38,-0.85,0.04,-0.05,0.90,23247138
-1.39,-0.86,0.04,-0.04,0.89,23251090
-1.39,-0.87,0.04,-0.03,0.90,23255041
-1.39,-0.87,0.03,-0.02,0.89,23258986
-1.38,-0.88,0.03,-0.01,0.89,23262944
-1.37,-0.88,0.02,0.00,0.89,23266881
-1.36,-0.87,0.01,0.01,0.89,23270830
-1.35,-0.87,0.00,0.02,0.89,23274549
-1.33,-0.86,-0.01,0.02,0.89,23278492
-1.32,-0.85,-0.02,0.03,0.89,23282447
-1.30,-0.84,-0.02,0.03,0.88,23286389
-1.28,-0.82,-0.02,0.03,0.89,23290350
-1.27,-0.81,-0.03,0.02,0.88,23294300
-1.25,-0.80,-0.02,0.02,0.89,23298245
-1.24,-0.79,-0.02,0.02,0.89,23302201
-1.23,-0.78,-0.02,0.01,0.89,23306137
-1.23,-0.77,-0.02,-0.01,0.89,23310101
-1.23,-0.76,-0.01,-0.02,0.89,23314043
-1.23,-0.76,-0.00,-0.03,0.89,23317995
-1.24,-0.76,0.01,-0.04,0.89,23321952
-1.25,-0.76,0.02,-0.04,0.89,23325902
-1.26,-0.77,0.03,-0.05,0.89,23329864
-1.28,-0.78,0.04,-0.06,0.90,23333805
-1.30,-0.79,0.04,-0.07,0.90,23337751
-1.31,-0.80,0.05,-0.08,0.90,23341701
-1.33,-0.82,0.04,-0.07,0.89,23345643
-1.35,-0.83,0.04,-0.07,0.90,23349597
-1.36,-0.84,0.04,-0.06,0.89,23353540
-1.37,-0.84,0.04,-0.05,0.89,23357485
-1.38,-0.85,0.04,-0.05,0.89,23361436
-1.38,-0.86,0.04,-0.04,0.90,23365379
-1.39,-0.87,0.04,-0.03,0.89,23369337
-1.38,-0.88,0.04,-0.01,0.90,23373282
-1.38,-0.88,0.03,-0.00,0.89,23377229
-1.36,-0.88,0.01,0.01,0.89,23381179
-1.35,-0.87,0.00,0.02,0.89,23385117
-1.33,-0.86,-0.01,0.02,0.89,23389073
-1.32,-0.85,-0.01,0.03,0.89,23393016
-1.30,-0.84,-0.02,0.03,0.89,23396965
-1.28,-0.83,-0.02,0.03,0.89,23400911
-1.27,-0.82,-0.02,0.03,0.89,23404866
-1.25,-0.81,-0.02,0.02,0.89,23408822
-1.24,-0.80,-0.02,0.02,0.89,23412762
-1.23,-0.79,-0.02,0.01,0.89,23416714
-1.23,-0.78,-0.02,-0.01,0.89,23420660
-1.23,-0.77,-0.01,-0.02,0.89,23424609
-1.24,-0.76,-0.00,-0.04,0.89,23428566
-1.25,-0.76,0.01,-0.04,0.90,23432505
-1.25,-0.77,0.02,-0.04,0.89,23436459
-1.26,-0.78,0.03,-0.05,0.90,23440407
-1.28,-0.78,0.03,-0.06,0.90,23444359
-1.30,-0.79,0.04,-0.07,0.90,23448307
-1.32,-0.80,0.04,-0.08,0.90,23452245
-1.33,-0.81,0.04,-0.07,0.90,23456193
-1.35,-0.82,0.04,-0.06,0.90,23460129
-1.36,-0.84,0.04,-0.06,0.90,23464074
-1.37,-0.84,0.04,-0.05,0.90,23468032
-1.38,-0.85,0.04,-0.05,0.90,23471973
-1.38,-0.86,0.04,-0.04,0.90,23475924
-1.39,-0.87,0.04,-0.03,0.90,23479859
-1.38,-0.87,0.03,-0.01,0.89,23483812
-1.37,-0.87,0.02,0.00,0.89,23487760
-1.36,-0.87,0.01,0.01,0.89,23491704
-1.35,-0.87,0.00,0.02,0.89,23495658
-1.33,-0.86,-0.01,0.02,0.89,23499601
-1.32,-0.85,-0.01,0.03,0.89,23503554
-1.30,-0.84,-0.02,0.03,0.89,23507493
-1.28,-0.83,-0.02,0.03,0.89,23511439
-1.26,-0.81,-0.02,0.03,0.89,23515393
-1.25,-0.80,-0.02,0.02,0.89,23519336
-1.24,-0.79,-0.02,0.02,0.89,23523290
-1.23,-0.78,-0.02,0.01,0.89,23527237
-1.23,-0.77,-0.02,-0.01,0.89,23531189
-1.23,-0.77,-0.02,-0.02,0.89,23535149
-1.23,-0.76,-0.01,-0.03,0.89,23539096
-1.24,-0.76,0.01,-0.04,0.89,23543051
-1.25,-0.76,0.02,-0.04,0.89,23546996
-1.26,-0.77,0.03,-0.05,0.89,23550951
-1.28,-0.78,0.03,-0.06,0.90,23554909
-1.30,-0.79,0.04,-0.08,0.90,23558852
-1.32,-0.80,0.04,-0.08,0.90,23562801
-1.33,-0.81,0.05,-0.07,0.90,23566738
-1.35,-0.83,0.05,-0.06,0.90,23570682
-1.36,-0.84,0.04,-0.06,0.89,23574645
-1.37,-0.85,0.04,-0.05,0.89,23578590
-1.38,-0.86,0.04,-0.05,0.89,23582543
-1.38,-0.86,0.04,-0.04,0.90,23586487
-1.38,-0.87,0.04,-0.02,0.89,23590442
-1.38,-0.88,0.03,-0.01,0.89,23594406
-1.37,-0.88,0.03,0.00,0.89,23598349
-1.36,-0.88,0.01,0.01,0.89,23602309
-1.35,-0.87,0.00,0.02,0.89,23606248
-1.33,-0.86,-0.00,0.03,0.89,23610195
-1.31,-0.85,-0.01,0.03,0.89,23614148
-1.29,-0.84,-0.01,0.03,0.89,23618092
-1.27,-0.83,-0.02,0.03,0.89,23622051
-1.26,-0.82,-0.02,0.03,0.88,23625994
-1.24,-0.81,-0.02,0.03,0.89,23629950
-1.23,-0.80,-0.02,0.02,0.89,23633892
-1.22,-0.79,-0.02,0.01,0.89,23637830
-1.22,-0.78,-0.02,-0.01,0.89,23641787
-1.22,-0.78,-0.01,-0.02,0.89,23645731
-1.23,-0.77,-0.00,-0.03,0.89,23649682
-1.24,-0.77,0.01,-0.04,0.89,23653638
-1.25,-0.78,0.02,-0.05,0.89,23657583
-1.26,-0.78,0.03,-0.05,0.89,23661538
-1.28,-0.79,0.04,-0.07,0.90,23665484
-1.30,-0.80,0.04,-0.08,0.90,23669435
-1.32,-0.82,0.05,-0.08,0.90,23673378
-1.33,-0.83,0.04,-0.07,0.90,23677332
-1.35,-0.84,0.04,-0.06,0.90,23681282
-1.36,-0.85,0.04,-0.06,0.89,23685236
-1.37,-0.86,0.04,-0.05,0.90,23689191
-1.38,-0.86,0.04,-0.05,0.89,23693138
-1.38,-0.87,0.04,-0.04,0.90,23697088
-1.38,-0.88,0.04,-0.02,0.89,23701047
-1.38,-0.88,0.03,-0.01,0.90,23704990
-1.37,-0.89,0.02,0.00,0.89,23708935
-1.36,-0.88,0.01,0.01,0.89,23712878
-1.34,-0.88,0.00,0.02,0.89,23716823
-1.33,-0.87,-0.01,0.03,0.89,23720773
-1.31,-0.86,-0.01,0.03,0.89,23724716
-1.29,-0.85,-0.02,0.03,0.89,23728678
-1.27,-0.84,-0.02,0.03,0.89,23732624
-1.26,-0.83,-0.02,0.03,0.89,23736570
-1.24,-0.82,-0.02,0.02,0.89,23740520
-1.23,-0.81,-0.02,0.01,0.89,23744464
-1.23,-0.80,-0.02,0.00,0.89,23748421
-1.22,-0.79,-0.02,-0.01,0.89,23752369
-1.23,-0.78,-0.01,-0.03,0.89,23756319
-1.23,-0.78,-0.00,-0.04,0.89,23760262
-1.24,-0.78,0.01,-0.04,0.90,23764212
-1.25,-0.78,0.02,-0.05,0.89,23768164
-1.26,-0.79,0.03,-0.05,0.90,23772104
-1.28,-0.80,0.03,-0.07,0.90,23776046
-1.30,-0.81,0.04,-0.08,0.90,23779991
-1.32,-0.82,0.04,-0.08,0.90,23783929
-1.34,-0.83,0.04,-0.07,0.90,23787879
-1.35,-0.84,0.04,-0.06,0.90,23791817
-1.36,-0.85,0.04,-0.06,0.90,23795764
-1.37,-0.86,0.04,-0.05,0.90,23799708
-1.38,-0.86,0.04,-0.05,0.90,23803651
-1.38,-0.87,0.04,-0.04,0.90,23807599
-1.38,-0.88,0.04,-0.02,0.90,23811541
-1.38,-0.88,0.03,-0.01,0.90,23815494
-1.37,-0.88,0.02,0.00,0.89,23819433
-1.36,-0.88,0.01,0.01,0.89,23823386
-1.34,-0.88,0.00,0.02,0.89,23827330
-1.32,-0.87,-0.00,0.03,0.89,23831270
-1.30,-0.86,-0.01,0.03,0.89,23835223
-1.29,-0.85,-0.01,0.03,0.89,23839167
-1.27,-0.84,-0.02,0.03,0.88,23843119
-1.25,-0.82,-0.02,0.03,0.89,23847077
-1.24,-0.81,-0.02,0.02,0.89,23851032
-1.23,-0.80,-0.02,0.02,0.88,23854989
-1.22,-0.79,-0.02,0.00,0.89,23858932
-1.22,-0.78,-0.02,-0.01,0.89,23862883
-1.22,-0.77,-0.01,-0.02,0.89,23866839
-1.23,-0.77,-0.00,-0.03,0.89,23870781
-1.23,-0.77,0.01,-0.04,0.89,23874737
-1.24,-0.77,0.02,-0.05,0.89,23878682
-1.26,-0.78,0.03,-0.06,0.90,23882628
-1.28,-0.79,0.03,-0.07,0.90,23886574
-1.30,-0.80,0.04,-0.08,0.90,23890515
-1.32,-0.81,0.04,-0.08,0.90,23894473
-1.33,-0.82,0.04,-0.07,0.90,23898419
-1.35,-0.83,0.04,-0.06,0.90,23902366
-1.36,-0.84,0.04,-0.06,0.90,23906312
-1.37,-0.85,0.04,-0.05,0.90,23910259
-1.38,-0.86,0.04,-0.05,0.90,23914212
-1.38,-0.87,0.04,-0.03,0.90,23918155
-1.38,-0.88,0.04,-0.02,0.90,23922111
-1.37,-0.88,0.03,-0.00,0.89,23926051
-1.36,-0.88,0.02,0.00,0.89,23929998
-1.35,-0.88,0.01,0.01,0.89,23933958
-1.33,-0.88,0.00,0.02,0.89,23937900
-1.32,-0.87,-0.00,0.03,0.89,23941851
-1.30,-0.86,-0.01,0.03,0.89,23945794
-1.28,-0.85,-0.01,0.03,0.89,23949742
-1.26,-0.84,-0.02,0.03,0.88,23953697
-1.25,-0.83,-0.02,0.03,0.89,23957639
-1.23,-0.81,-0.02,0.02,0.89,23961597
-1.22,-0.80,-0.02,0.01,0.89,23965534
-1.22,-0.79,-0.02,-0.00,0.89,23969478
-1.22,-0.78,-0.02,-0.02,0.89,23973436
-1.22,-0.77,-0.01,-0.03,0.89,23977379
-1.23,-0.77,0.01,-0.04,0.89,23981344
-1.24,-0.78,0.02,-0.05,0.89,23985287
-1.25,-0.78,0.03,-0.05,0.90,23989233
-1.27,-0.79,0.03,-0.06,0.90,23993185
-1.29,-0.80,0.04,-0.07,0.90,23997129
-1.31,-0.81,0.04,-0.08,0.90,24001084
-1.32,-0.82,0.04,-0.07,0.90,24005028
-1.34,-0.83,0.04,-0.06,0.89,24008981
-1.35,-0.84,0.04,-0.06,0.90,24012927
-1.36,-0.85,0.04,-0.05,0.89,24016880
-1.37,-0.86,0.04,-0.05,0.89,24020834
-1.38,-0.87,0.04,-0.04,0.89,24024778
-1.38,-0.87,0.04,-0.03,0.89,24028728
-1.38,-0.88,0.03,-0.01,0.89,24032678
-1.37,-0.88,0.02,0.00,0.89,24036390
-1.36,-0.88,0.01,0.01,0.89,24040352
-1.34,-0.87,0.00,0.02,0.89,24044292
-1.33,-0.86,-0.00,0.03,0.89,24048242
-1.31,-0.86,-0.01,0.03,0.88,24052172
-1.29,-0.85,-0.01,0.03,0.89,24056121
-1.27,-0.84,-0.01,0.03,0.89,24060071
-1.25,-0.83,-0.01,0.03,0.89,24064010
-1.24,-0.82,-0.02,0.02,0.89,24067967
-1.23,-0.81,-0.02,0.02,0.89,24071910
-1.22,-0.80,-0.02,0.00,0.89,24075854
-1.22,-0.79,-0.02,-0.01,0.89,24079814
-1.22,-0.78,-0.01,-0.02,0.89,24083763
-1.22,-0.78,-0.00,-0.04,0.89,24087714
-1.23,-0.78,0.01,-0.04,0.89,24091655
-1.24,-0.78,0.02,-0.05,0.89,24095607
-1.26,-0.79,0.03,-0.06,0.89,24099567
-1.27,-0.80,0.03,-0.07,0.89,24103513
-1.29,-0.81,0.04,-0.08,0.90,24107463
-1.31,-0.82,0.04,-0.08,0.90,24111404
-1.33,-0.83,0.04,-0.07,0.90,24115360
-1.34,-0.84,0.04,-0.06,0.89,24119321
-1.36,-0.85,0.04,-0.06,0.90,24123262
-1.37,-0.85,0.04,-0.05,0.89,24127216
