Roll Angle, Pitch Angle, AccX, AccY, AccZ, Timer
-0.42,-0.28,0.01,-0.02,0.89,9454267
-0.64,-0.43,0.01,-0.02,0.89,9458210
-0.78,-0.54,0.02,-0.02,0.89,9462164
-0.87,-0.61,0.02,-0.02,0.89,9466107
-0.94,-0.67,0.02,-0.02,0.89,9470053
-1.00,-0.70,0.02,-0.02,0.89,9473998
-1.04,-0.73,0.02,-0.02,0.89,9477946
-1.07,-0.76,0.02,-0.02,0.89,9481903
-1.09,-0.78,0.01,-0.02,0.89,9485847
-1.12,-0.79,0.01,-0.02,0.89,9489808
-1.13,-0.79,0.01,-0.02,0.89,9493760
-1.15,-0.79,0.01,-0.02,0.89,9497711
-1.16,-0.79,0.01,-0.02,0.89,9501664
-1.18,-0.79,0.01,-0.02,0.89,9505612
-1.19,-0.79,0.01,-0.02,0.89,9509569
-1.20,-0.79,0.01,-0.02,0.89,9513512
-1.21,-0.79,0.01,-0.02,0.89,9517468
-1.22,-0.79,0.01,-0.02,0.89,9521419
-1.23,-0.80,0.01,-0.02,0.89,9525362
-1.24,-0.80,0.01,-0.02,0.89,9529321
-1.24,-0.80,0.01,-0.02,0.89,9533264
-1.24,-0.80,0.01,-0.02,0.89,9537224
-1.25,-0.81,0.01,-0.02,0.89,9541169
-1.25,-0.81,0.01,-0.02,0.89,9545127
-1.25,-0.82,0.01,-0.02,0.89,9549090
-1.25,-0.82,0.01,-0.02,0.89,9553036
-1.25,-0.83,0.01,-0.02,0.89,9556985
-1.25,-0.83,0.01,-0.02,0.89,9560926
-1.26,-0.83,0.01,-0.02,0.89,9564882
-1.26,-0.83,0.01,-0.02,0.89,9568829
-1.26,-0.83,0.01,-0.02,0.89,9572790
-1.26,-0.83,0.01,-0.02,0.89,9576745
-1.26,-0.84,0.01,-0.02,0.89,9580694
-1.26,-0.84,0.01,-0.02,0.89,9584650
-1.26,-0.84,0.01,-0.02,0.89,9588594
-1.26,-0.84,0.01,-0.02,0.89,9592548
-1.26,-0.84,0.01,-0.02,0.89,9596496
-1.26,-0.84,0.01,-0.02,0.89,9600435
-1.27,-0.84,0.01,-0.02,0.89,9604393
-1.27,-0.84,0.01,-0.02,0.89,9608343
-1.27,-0.84,0.01,-0.02,0.89,9612298
-1.27,-0.84,0.01,-0.02,0.89,9616246
-1.27,-0.84,0.01,-0.02,0.89,9620193
-1.27,-0.84,0.01,-0.02,0.89,9624155
-1.27,-0.84,0.01,-0.02,0.89,9628101
-1.28,-0.84,0.01,-0.02,0.89,9632063
-1.28,-0.84,0.01,-0.02,0.89,9636006
-1.28,-0.84,0.01,-0.02,0.89,9639959
-1.28,-0.84,0.01,-0.02,0.89,9643904
-1.28,-0.85,0.01,-0.02,0.89,9647849
-1.28,-0.85,0.01,-0.02,0.89,9651802
-1.28,-0.85,0.01,-0.02,0.89,9655750
-1.28,-0.85,0.01,-0.02,0.89,9659710
-1.28,-0.85,0.01,-0.02,0.89,9663659
-1.28,-0.85,0.01,-0.02,0.89,9667617
-1.28,-0.85,0.01,-0.02,0.89,9671566
-1.29,-0.85,0.01,-0.02,0.89,9675517
-1.29,-0.85,0.01,-0.02,0.89,9679476
-1.29,-0.85,0.01,-0.02,0.89,9683425
-1.29,-0.85,0.01,-0.02,0.89,9687389
-1.29,-0.85,0.01,-0.02,0.89,9691334
-1.30,-0.85,0.01,-0.02,0.89,9695285
-1.30,-0.85,0.01,-0.02,0.89,9699230
-1.30,-0.85,0.01,-0.02,0.90,9703167
-1.30,-0.85,0.01,-0.02,0.89,9707122
-1.30,-0.85,0.01,-0.02,0.89,9711064
-1.30,-0.85,0.01,-0.02,0.90,9715014
-1.30,-0.85,0.01,-0.02,0.89,9718952
-1.30,-0.85,0.01,-0.02,0.89,9722898
-1.31,-0.85,0.01,-0.02,0.89,9726857
-1.31,-0.85,0.01,-0.02,0.89,9730803
-1.31,-0.85,0.01,-0.02,0.89,9734757
-1.31,-0.85,0.01,-0.02,0.89,9738700
-1.31,-0.85,0.01,-0.02,0.89,9742659
-1.31,-0.85,0.01,-0.02,0.89,9746607
-1.31,-0.85,0.01,-0.02,0.89,9750558
-1.31,-0.85,0.01,-0.02,0.89,9754509
-1.31,-0.85,0.01,-0.02,0.89,9758458
-1.31,-0.85,0.01,-0.02,0.89,9762418
-1.31,-0.85,0.01,-0.02,0.89,9766366
-1.31,-0.85,0.01,-0.02,0.89,9770321
-1.31,-0.85,0.01,-0.02,0.89,9774277
-1.32,-0.85,0.01,-0.02,0.89,9778230
-1.32,-0.85,0.01,-0.02,0.89,9782188
-1.32,-0.85,0.01,-0.02,0.89,9786134
-1.32,-0.85,0.01,-0.02,0.89,9790086
-1.32,-0.85,0.01,-0.02,0.89,9794027
-1.32,-0.85,0.01,-0.02,0.89,9797977
-1.32,-0.85,0.01,-0.02,0.89,9801938
-1.32,-0.85,0.01,-0.02,0.89,9805878
-1.32,-0.85,0.01,-0.02,0.89,9809834
-1.32,-0.85,0.01,-0.02,0.89,9813777
-1.32,-0.85,0.01,-0.02,0.89,9817735
-1.32,-0.85,0.01,-0.02,0.89,9821681
-1.32,-0.85,0.01,-0.02,0.89,9825634
-1.32,-0.85,0.01,-0.02,0.89,9829592
-1.32,-0.85,0.01,-0.02,0.89,9833542
-1.32,-0.85,0.01,-0.02,0.89,9837497
-1.32,-0.85,0.01,-0.02,0.89,9841444
-1.32,-0.85,0.01,-0.02,0.89,9845395
-1.32,-0.85,0.01,-0.02,0.89,9849353
-1.32,-0.85,0.01,-0.02,0.89,9853305
-1.32,-0.85,0.01,-0.02,0.89,9857266
-1.32,-0.85,0.01,-0.02,0.89,9861219
-1.32,-0.85,0.01,-0.02,0.89,9865177
-1.32,-0.85,0.01,-0.02,0.89,9869129
-1.32,-0.85,0.01,-0.02,0.89,9873089
-1.32,-0.85,0.01,-0.02,0.89,9877053
-1.32,-0.85,0.01,-0.02,0.89,9880996
-1.32,-0.85,0.01,-0.02,0.89,9884953
-1.32,-0.85,0.01,-0.02,0.89,9888898
-1.32,-0.85,0.01,-0.02,0.90,9892853
-1.32,-0.85,0.01,-0.02,0.89,9896791
-1.32,-0.85,0.01,-0.02,0.89,9900743
-1.32,-0.85,0.01,-0.02,0.89,9904700
-1.32,-0.86,0.01,-0.02,0.89,9908640
-1.32,-0.85,0.01,-0.02,0.89,9912595
-1.32,-0.85,0.01,-0.02,0.89,9916544
-1.32,-0.85,0.01,-0.02,0.89,9920499
-1.32,-0.85,0.01,-0.02,0.89,9924447
-1.32,-0.86,0.01,-0.02,0.89,9928398
-1.32,-0.86,0.01,-0.02,0.89,9932356
-1.33,-0.86,0.01,-0.02,0.89,9936303
-1.33,-0.86,0.01,-0.02,0.89,9940266
-1.33,-0.86,0.01,-0.02,0.89,9944209
-1.33,-0.86,0.01,-0.02,0.89,9948168
-1.33,-0.86,0.01,-0.02,0.89,9952121
-1.33,-0.86,0.01,-0.02,0.89,9956067
-1.33,-0.86,0.01,-0.02,0.89,9960025
-1.33,-0.86,0.01,-0.02,0.89,9963978
-1.33,-0.86,0.01,-0.02,0.89,9967938
-1.33,-0.86,0.01,-0.02,0.89,9971883
-1.33,-0.86,0.01,-0.02,0.89,9975836
-1.33,-0.86,0.01,-0.02,0.89,9979797
-1.33,-0.86,0.01,-0.02,0.89,9983743
-1.33,-0.86,0.01,-0.02,0.89,9987700
-1.33,-0.86,0.02,-0.02,0.89,9991646
-1.33,-0.86,0.02,-0.02,0.89,9995604
-1.33,-0.86,0.02,-0.02,0.89,9999547
-1.33,-0.86,0.01,-0.02,0.89,10003494
-1.33,-0.86,0.01,-0.02,0.89,10007447
-1.33,-0.86,0.01,-0.02,0.89,10011396
-1.33,-0.86,0.01,-0.02,0.89,10015353
-1.33,-0.86,0.01,-0.02,0.89,10019303
-1.33,-0.86,0.01,-0.02,0.89,10023253
-1.33,-0.87,0.01,-0.02,0.89,10027204
-1.33,-0.87,0.01,-0.02,0.89,10031155
-1.33,-0.87,0.01,-0.02,0.89,10035113
-1.33,-0.86,0.01,-0.02,0.90,10039061
-1.33,-0.86,0.01,-0.02,0.89,10043017
-1.33,-0.86,0.01,-0.02,0.89,10046974
-1.33,-0.87,0.01,-0.02,0.89,10050925
-1.33,-0.87,0.01,-0.02,0.89,10054883
-1.33,-0.87,0.01,-0.02,0.89,10058832
-1.33,-0.87,0.01,-0.02,0.89,10062789
-1.33,-0.86,0.01,-0.02,0.89,10066748
-1.33,-0.86,0.01,-0.02,0.89,10070696
-1.33,-0.86,0.01,-0.02,0.89,10074652
-1.33,-0.86,0.01,-0.02,0.89,10078605
-1.33,-0.86,0.01,-0.02,0.89,10082559
-1.33,-0.86,0.01,-0.02,0.89,10086509
-1.33,-0.86,0.01,-0.02,0.89,10090453
-1.33,-0.86,0.01,-0.02,0.89,10094415
-1.33,-0.86,0.01,-0.02,0.89,10098363
-1.33,-0.86,0.01,-0.02,0.89,10102324
-1.33,-0.86,0.01,-0.02,0.89,10106275
-1.33,-0.86,0.01,-0.02,0.89,10110223
-1.33,-0.86,0.01,-0.02,0.89,10114178
-1.33,-0.86,0.01,-0.02,0.89,10118122
-1.33,-0.86,0.01,-0.02,0.89,10122081
-1.33,-0.86,0.01,-0.02,0.89,10126026
-1.33,-0.86,0.01,-0.02,0.89,10129983
-1.33,-0.86,0.01,-0.02,0.89,10133944
-1.33,-0.86,0.01,-0.02,0.89,10137886
-1.33,-0.86,0.01,-0.02,0.89,10141848
-1.33,-0.86,0.01,-0.02,0.89,10145798
-1.33,-0.86,0.01,-0.02,0.89,10149750
-1.33,-0.86,0.01,-0.02,0.89,10153704
-1.33,-0.86,0.01,-0.02,0.89,10157653
-1.33,-0.86,0.01,-0.02,0.89,10161618
-1.33,-0.86,0.01,-0.02,0.89,10165564
-1.33,-0.86,0.01,-0.02,0.89,10169515
-1.33,-0.86,0.01,-0.02,0.89,10173470
-1.33,-0.86,0.01,-0.02,0.89,10177416
-1.33,-0.86,0.01,-0.02,0.89,10181381
-1.33,-0.86,0.01,-0.02,0.89,10185332
-1.33,-0.86,0.01,-0.02,0.89,10189284
-1.33,-0.86,0.01,-0.02,0.89,10193239
-1.33,-0.86,0.01,-0.02,0.89,10197186
-1.33,-0.86,0.01,-0.02,0.89,10201147
-1.33,-0.86,0.01,-0.02,0.89,10205094
-1.33,-0.86,0.01,-0.02,0.89,10209042
-1.33,-0.86,0.01,-0.02,0.89,10212991
-1.33,-0.86,0.01,-0.02,0.89,10216937
-1.33,-0.86,0.01,-0.02,0.89,10220896
-1.33,-0.86,0.01,-0.02,0.89,10224841
-1.33,-0.86,0.01,-0.02,0.89,10228797
-1.33,-0.86,0.01,-0.02,0.89,10232745
-1.33,-0.86,0.01,-0.02,0.89,10236694
-1.33,-0.86,0.01,-0.02,0.89,10240650
-1.33,-0.86,0.01,-0.02,0.89,10244593
-1.33,-0.86,0.01,-0.02,0.89,10248551
-1.33,-0.86,0.01,-0.02,0.89,10252500
-1.33,-0.86,0.01,-0.02,0.89,10256454
-1.33,-0.86,0.01,-0.02,0.89,10260411
-1.33,-0.86,0.01,-0.02,0.89,10264358
-1.33,-0.87,0.01,-0.02,0.89,10268315
-1.33,-0.87,0.01,-0.02,0.89,10272268
-1.33,-0.87,0.01,-0.02,0.89,10276217
-1.33,-0.87,0.01,-0.02,0.89,10280181
-1.33,-0.87,0.01,-0.02,0.89,10284131
-1.33,-0.87,0.01,-0.02,0.89,10288094
-1.33,-0.86,0.01,-0.02,0.89,10292042
-1.33,-0.86,0.01,-0.02,0.89,10295995
-1.33,-0.87,0.01,-0.02,0.89,10299958
-1.33,-0.87,0.01,-0.02,0.89,10303901
-1.34,-0.87,0.01,-0.02,0.89,10307866
-1.34,-0.87,0.01,-0.02,0.89,10311812
-1.34,-0.86,0.01,-0.02,0.89,10315766
-1.34,-0.86,0.01,-0.02,0.89,10319722
-1.34,-0.86,0.01,-0.02,0.89,10323667
-1.34,-0.86,0.01,-0.02,0.89,10327621
-1.34,-0.86,0.01,-0.02,0.89,10331569
-1.34,-0.86,0.01,-0.02,0.89,10335520
-1.34,-0.86,0.01,-0.02,0.90,10339477
-1.34,-0.86,0.01,-0.02,0.90,10343421
-1.34,-0.86,0.01,-0.02,0.89,10347380
-1.34,-0.86,0.01,-0.02,0.89,10351330
-1.34,-0.86,0.01,-0.02,0.89,10355290
-1.34,-0.86,0.01,-0.02,0.89,10359241
-1.34,-0.86,0.01,-0.02,0.89,10363184
-1.34,-0.87,0.01,-0.02,0.89,10367136
-1.34,-0.87,0.01,-0.02,0.89,10371079
-1.34,-0.87,0.01,-0.02,0.89,10375041
-1.34,-0.87,0.01,-0.02,0.89,10378980
-1.34,-0.87,0.01,-0.02,0.89,10382936
-1.34,-0.87,0.01,-0.02,0.89,10386888
-1.34,-0.87,0.01,-0.02,0.89,10390836
-1.34,-0.87,0.01,-0.02,0.89,10394797
-1.34,-0.87,0.01,-0.02,0.89,10398748
-1.34,-0.87,0.01,-0.02,0.89,10402694
-1.34,-0.87,0.01,-0.02,0.89,10406651
-1.34,-0.87,0.01,-0.02,0.89,10410600
-1.34,-0.86,0.01,-0.02,0.89,10414553
-1.34,-0.86,0.01,-0.02,0.89,10418502
-1.34,-0.86,0.01,-0.02,0.89,10422449
-1.34,-0.86,0.01,-0.02,0.89,10426403
-1.34,-0.86,0.01,-0.02,0.89,10430353
-1.34,-0.86,0.01,-0.02,0.89,10434312
-1.34,-0.86,0.01,-0.02,0.89,10438258
-1.34,-0.86,0.01,-0.02,0.89,10442214
-1.34,-0.86,0.01,-0.02,0.89,10446171
-1.34,-0.86,0.01,-0.02,0.89,10450118
-1.34,-0.86,0.01,-0.02,0.89,10454082
-1.34,-0.86,0.01,-0.02,0.89,10458028
-1.34,-0.86,0.01,-0.02,0.89,10461977
-1.34,-0.86,0.01,-0.02,0.89,10465930
-1.34,-0.86,0.01,-0.02,0.89,10469876
-1.34,-0.86,0.01,-0.02,0.89,10473837
-1.34,-0.86,0.01,-0.02,0.89,10477787
-1.34,-0.86,0.01,-0.02,0.89,10481749
-1.34,-0.86,0.01,-0.02,0.89,10485698
-1.34,-0.86,0.01,-0.02,0.90,10489645
-1.35,-0.86,0.01,-0.02,0.89,10493599
-1.35,-0.87,0.01,-0.02,0.89,10497549
-1.35,-0.87,0.01,-0.02,0.89,10501507
-1.35,-0.87,0.01,-0.02,0.89,10505453
-1.35,-0.87,0.01,-0.02,0.89,10509402
-1.35,-0.87,0.02,-0.02,0.89,10513368
-1.35,-0.87,0.01,-0.02,0.89,10517322
-1.35,-0.87,0.01,-0.02,0.89,10521276
-1.35,-0.87,0.01,-0.02,0.89,10525220
-1.35,-0.87,0.01,-0.02,0.89,10529173
-1.35,-0.87,0.01,-0.02,0.89,10533132
-1.35,-0.87,0.01,-0.02,0.89,10537083
-1.35,-0.87,0.01,-0.02,0.89,10541038
-1.35,-0.87,0.01,-0.02,0.89,10544990
-1.35,-0.87,0.01,-0.02,0.89,10548945
-1.35,-0.87,0.01,-0.02,0.89,10552907
-1.35,-0.87,0.01,-0.02,0.89,10556857
-1.35,-0.87,0.01,-0.02,0.89,10560811
-1.35,-0.87,0.01,-0.02,0.89,10564758
-1.35,-0.87,0.01,-0.02,0.89,10568709
-1.35,-0.87,0.01,-0.02,0.89,10572668
-1.35,-0.87,0.01,-0.02,0.89,10576614
-1.35,-0.87,0.01,-0.02,0.89,10580571
-1.35,-0.87,0.01,-0.02,0.89,10584517
-1.35,-0.87,0.01,-0.02,0.89,10588472
-1.35,-0.87,0.01,-0.02,0.89,10592427
-1.35,-0.87,0.01,-0.02,0.89,10596375
-1.35,-0.87,0.01,-0.02,0.89,10600336
-1.34,-0.87,0.01,-0.02,0.89,10604290
-1.34,-0.87,0.01,-0.02,0.89,10608249
-1.34,-0.87,0.01,-0.02,0.89,10612198
-1.34,-0.87,0.01,-0.02,0.89,10616144
-1.34,-0.87,0.01,-0.02,0.89,10620108
-1.34,-0.87,0.01,-0.02,0.89,10624055
-1.34,-0.87,0.01,-0.02,0.89,10628010
-1.34,-0.87,0.01,-0.02,0.89,10631957
-1.34,-0.87,0.01,-0.02,0.89,10635909
-1.34,-0.87,0.01,-0.02,0.89,10639865
-1.34,-0.87,0.01,-0.02,0.89,10643814
-1.34,-0.87,0.01,-0.02,0.89,10647773
-1.34,-0.86,0.01,-0.02,0.89,10651723
-1.34,-0.86,0.01,-0.02,0.89,10655677
-1.34,-0.86,0.01,-0.02,0.89,10659635
-1.34,-0.86,0.01,-0.02,0.89,10663579
-1.34,-0.86,0.01,-0.02,0.89,10667539
-1.34,-0.86,0.01,-0.02,0.89,10671487
-1.34,-0.86,0.01,-0.02,0.89,10675442
-1.34,-0.86,0.01,-0.02,0.89,10679400
-1.34,-0.86,0.01,-0.02,0.89,10683346
-1.34,-0.86,0.01,-0.02,0.89,10687313
-1.34,-0.86,0.01,-0.02,0.89,10691260
-1.34,-0.86,0.01,-0.02,0.89,10695216
-1.34,-0.86,0.01,-0.02,0.89,10699178
-1.34,-0.86,0.01,-0.02,0.89,10703128
-1.34,-0.86,0.01,-0.02,0.89,10707081
-1.34,-0.86,0.01,-0.02,0.89,10711030
-1.34,-0.86,0.01,-0.02,0.89,10714982
-1.34,-0.86,0.01,-0.02,0.89,10718933
-1.34,-0.86,0.01,-0.02,0.89,10722874
-1.34,-0.86,0.01,-0.02,0.89,10726836
-1.34,-0.86,0.01,-0.02,0.89,10730781
-1.34,-0.86,0.01,-0.02,0.89,10734737
-1.34,-0.86,0.01,-0.02,0.89,10738687
-1.34,-0.86,0.01,-0.02,0.89,10742635
-1.34,-0.86,0.01,-0.02,0.89,10746601
-1.34,-0.86,0.01,-0.02,0.89,10750546
-1.34,-0.86,0.01,-0.02,0.89,10754504
-1.34,-0.86,0.01,-0.02,0.89,10758453
-1.34,-0.86,0.01,-0.02,0.89,10762410
-1.34,-0.86,0.01,-0.02,0.89,10766373
-1.34,-0.86,0.01,-0.02,0.89,10770326
-1.34,-0.86,0.01,-0.02,0.89,10774287
-1.34,-0.87,0.01,-0.02,0.89,10778237
-1.34,-0.87,0.01,-0.02,0.89,10782188
-1.34,-0.87,0.01,-0.02,0.89,10786149
-1.34,-0.87,0.01,-0.02,0.89,10790097
-1.34,-0.87,0.01,-0.02,0.89,10794055
-1.35,-0.87,0.02,-0.02,0.89,10798010
-1.35,-0.87,0.01,-0.02,0.89,10801966
-1.35,-0.87,0.01,-0.02,0.89,10805924
-1.35,-0.87,0.01,-0.02,0.89,10809869
-1.35,-0.87,0.01,-0.02,0.89,10813823
-1.35,-0.87,0.01,-0.02,0.89,10817769
-1.34,-0.87,0.01,-0.02,0.89,10821721
-1.34,-0.87,0.01,-0.02,0.89,10825676
-1.34,-0.87,0.01,-0.02,0.89,10829618
-1.34,-0.87,0.01,-0.02,0.89,10833575
-1.34,-0.86,0.01,-0.02,0.89,10837521
-1.34,-0.86,0.01,-0.02,0.89,10841472
-1.34,-0.86,0.01,-0.02,0.89,10845428
-1.34,-0.86,0.01,-0.02,0.89,10849378
-1.34,-0.86,0.01,-0.02,0.89,10853337
-1.34,-0.86,0.01,-0.02,0.89,10857285
-1.34,-0.86,0.01,-0.02,0.89,10861246
-1.34,-0.86,0.01,-0.02,0.89,10865194
-1.35,-0.86,0.01,-0.02,0.89,10869146
-1.35,-0.86,0.01,-0.02,0.89,10873108
-1.35,-0.86,0.01,-0.02,0.89,10877053
-1.34,-0.86,0.01,-0.02,0.89,10881010
-1.34,-0.86,0.01,-0.02,0.89,10884955
-1.34,-0.86,0.01,-0.02,0.89,10888909
-1.34,-0.86,0.01,-0.02,0.89,10892867
-1.34,-0.86,0.01,-0.02,0.89,10896817
-1.34,-0.86,0.01,-0.02,0.89,10900776
-1.34,-0.86,0.01,-0.02,0.89,10904719
-1.34,-0.86,0.01,-0.02,0.89,10908675
-1.34,-0.86,0.01,-0.02,0.89,10912634
-1.34,-0.86,0.01,-0.02,0.89,10916583
-1.34,-0.86,0.01,-0.02,0.89,10920543
-1.34,-0.86,0.01,-0.02,0.89,10924490
-1.34,-0.86,0.01,-0.02,0.89,10928441
-1.34,-0.86,0.01,-0.02,0.89,10932398
-1.34,-0.86,0.01,-0.02,0.89,10936347
-1.34,-0.86,0.01,-0.02,0.89,10940301
-1.34,-0.86,0.01,-0.02,0.89,10944248
-1.34,-0.86,0.01,-0.02,0.89,10948195
-1.34,-0.86,0.01,-0.02,0.89,10952158
-1.34,-0.86,0.01,-0.02,0.89,10956104
-1.34,-0.86,0.01,-0.02,0.89,10960065
-1.34,-0.86,0.01,-0.02,0.89,10964014
-1.34,-0.86,0.01,-0.02,0.89,10967972
-1.34,-0.86,0.01,-0.02,0.89,10971926
-1.34,-0.86,0.01,-0.02,0.89,10975881
-1.34,-0.86,0.01,-0.02,0.89,10979839
-1.34,-0.86,0.01,-0.02,0.89,10983788
-1.34,-0.86,0.01,-0.02,0.89,10987751
-1.34,-0.86,0.01,-0.02,0.89,10991699
-1.34,-0.86,0.01,-0.02,0.89,10995649
-1.34,-0.86,0.02,-0.02,0.89,10999605
-1.34,-0.86,0.01,-0.02,0.89,11003552
-1.34,-0.86,0.01,-0.02,0.89,11007510
-1.34,-0.86,0.01,-0.02,0.89,11011450
-1.34,-0.86,0.01,-0.02,0.89,11015410
-1.34,-0.86,0.01,-0.02,0.89,11019371
-1.34,-0.86,0.01,-0.02,0.89,11023321
-1.34,-0.86,0.01,-0.02,0.89,11027279
-1.34,-0.86,0.01,-0.02,0.89,11031220
-1.34,-0.86,0.01,-0.02,0.89,11035178
-1.34,-0.87,0.01,-0.02,0.89,11039132
-1.34,-0.87,0.01,-0.02,0.89,11043085
-1.34,-0.87,0.01,-0.02,0.89,11047045
-1.34,-0.87,0.02,-0.02,0.89,11050997
-1.34,-0.87,0.01,-0.02,0.89,11054957
-1.34,-0.87,0.01,-0.02,0.89,11058916
-1.34,-0.87,0.01,-0.02,0.89,11062857
-1.34,-0.87,0.01,-0.02,0.89,11066812
-1.34,-0.87,0.01,-0.02,0.89,11070753
-1.34,-0.87,0.01,-0.02,0.89,11074708
-1.34,-0.87,0.02,-0.02,0.89,11078660
-1.34,-0.87,0.01,-0.02,0.89,11082609
-1.34,-0.87,0.02,-0.02,0.89,11086565
-1.34,-0.87,0.02,-0.02,0.89,11090511
-1.34,-0.87,0.01,-0.02,0.89,11094460
-1.34,-0.87,0.01,-0.02,0.89,11098417
-1.34,-0.87,0.01,-0.02,0.89,11102362
-1.34,-0.87,0.01,-0.02,0.89,11106324
-1.34,-0.87,0.01,-0.02,0.89,11110280
-1.34,-0.87,0.01,-0.02,0.89,11114238
-1.34,-0.87,0.01,-0.02,0.89,11118189
-1.34,-0.87,0.01,-0.02,0.89,11122142
-1.34,-0.87,0.01,-0.02,0.89,11126104
-1.34,-0.87,0.01,-0.02,0.89,11130055
-1.34,-0.87,0.01,-0.02,0.89,11134017
-1.34,-0.87,0.01,-0.02,0.89,11137966
-1.34,-0.87,0.01,-0.02,0.89,11141918
-1.34,-0.87,0.01,-0.02,0.89,11145877
-1.34,-0.87,0.01,-0.02,0.89,11149822
-1.34,-0.87,0.01,-0.02,0.89,11153780
-1.34,-0.87,0.01,-0.02,0.89,11157728
-1.34,-0.87,0.01,-0.02,0.89,11161685
-1.34,-0.87,0.01,-0.02,0.89,11165643
-1.34,-0.87,0.01,-0.02,0.89,11169591
-1.34,-0.87,0.01,-0.02,0.89,11173544
-1.34,-0.87,0.01,-0.02,0.89,11177487
-1.34,-0.87,0.01,-0.02,0.89,11181443
-1.34,-0.87,0.01,-0.02,0.89,11185404
-1.34,-0.87,0.01,-0.02,0.89,11189356
-1.34,-0.87,0.01,-0.02,0.89,11193319
-1.34,-0.87,0.01,-0.02,0.89,11197266
-1.34,-0.87,0.01,-0.02,0.89,11201220
-1.34,-0.87,0.01,-0.02,0.89,11205182
-1.34,-0.87,0.01,-0.02,0.89,11209129
-1.34,-0.87,0.01,-0.02,0.89,11213086
-1.34,-0.87,0.01,-0.02,0.89,11217037
-1.34,-0.87,0.01,-0.02,0.89,11220985
-1.34,-0.87,0.01,-0.02,0.89,11224935
-1.34,-0.87,0.01,-0.02,0.89,11228884
-1.34,-0.87,0.01,-0.02,0.89,11232844
-1.34,-0.87,0.01,-0.02,0.89,11236789
-1.34,-0.87,0.01,-0.02,0.89,11240750
-1.34,-0.87,0.01,-0.02,0.89,11244700
-1.34,-0.87,0.01,-0.02,0.89,11248646
-1.34,-0.87,0.01,-0.02,0.89,11252606
-1.34,-0.87,0.01,-0.02,0.89,11256556
-1.34,-0.87,0.01,-0.02,0.89,11260514
-1.34,-0.87,0.01,-0.02,0.89,11264463
-1.34,-0.87,0.01,-0.02,0.89,11268420
-1.34,-0.87,0.01,-0.02,0.89,11272381
-1.34,-0.87,0.01,-0.02,0.89,11276332
-1.34,-0.87,0.01,-0.02,0.89,11280294
-1.34,-0.87,0.01,-0.02,0.89,11284242
-1.34,-0.87,0.01,-0.02,0.89,11288195
-1.34,-0.87,0.01,-0.02,0.89,11292155
-1.34,-0.87,0.01,-0.02,0.89,11296102
-1.35,-0.87,0.01,-0.02,0.89,11300063
-1.35,-0.87,0.01,-0.02,0.89,11304006
-1.35,-0.87,0.01,-0.02,0.89,11307958
-1.35,-0.87,0.01,-0.02,0.89,11311912
-1.35,-0.87,0.01,-0.02,0.89,11315855
-1.35,-0.87,0.01,-0.02,0.89,11319811
-1.35,-0.87,0.01,-0.02,0.89,11323762
-1.35,-0.87,0.01,-0.02,0.89,11327714
-1.35,-0.87,0.01,-0.02,0.89,11331669
-1.35,-0.87,0.01,-0.02,0.89,11335618
-1.35,-0.87,0.01,-0.02,0.89,11339579
-1.35,-0.87,0.01,-0.02,0.89,11343525
-1.35,-0.87,0.01,-0.02,0.89,11347477
-1.35,-0.87,0.01,-0.02,0.89,11351433
-1.35,-0.87,0.01,-0.02,0.89,11355381
-1.35,-0.87,0.01,-0.02,0.89,11359342
-1.35,-0.87,0.01,-0.02,0.89,11363291
-1.35,-0.87,0.01,-0.02,0.89,11367244
-1.35,-0.87,0.01,-0.02,0.89,11371195
-1.35,-0.87,0.01,-0.02,0.89,11375146
-1.35,-0.87,0.01,-0.02,0.89,11379104
-1.35,-0.87,0.01,-0.02,0.89,11383055
-1.35,-0.87,0.01,-0.02,0.89,11387012
-1.35,-0.87,0.01,-0.02,0.89,11390959
-1.35,-0.87,0.01,-0.02,0.89,11394913
-1.35,-0.87,0.01,-0.02,0.89,11398876
-1.35,-0.87,0.01,-0.02,0.89,11402827
-1.35,-0.87,0.01,-0.02,0.89,11406786
-1.35,-0.87,0.01,-0.02,0.89,11410738
-1.35,-0.87,0.01,-0.02,0.89,11414683
-1.35,-0.87,0.01,-0.02,0.89,11418645
-1.35,-0.87,0.01,-0.02,0.89,11422588
-1.35,-0.87,0.01,-0.02,0.89,11426550
-1.35,-0.87,0.01,-0.02,0.89,11430496
-1.35,-0.87,0.01,-0.02,0.89,11434440
-1.35,-0.87,0.01,-0.02,0.89,11438405
-1.35,-0.87,0.01,-0.02,0.89,11442355
-1.35,-0.87,0.01,-0.02,0.89,11446317
-1.35,-0.87,0.01,-0.02,0.89,11450267
-1.35,-0.87,0.01,-0.02,0.89,11454215
-1.35,-0.87,0.01,-0.02,0.89,11458176
-1.35,-0.87,0.01,-0.02,0.89,11462117
-1.35,-0.87,0.01,-0.02,0.89,11466076
-1.35,-0.87,0.01,-0.02,0.89,11470026
-1.35,-0.87,0.01,-0.02,0.89,11473982
-1.34,-0.87,0.01,-0.02,0.89,11477937
-1.34,-0.87,0.01,-0.02,0.89,11481885
-1.34,-0.87,0.01,-0.02,0.89,11485838
-1.34,-0.87,0.01,-0.02,0.89,11489783
-1.34,-0.87,0.01,-0.02,0.89,11493739
-1.34,-0.87,0.01,-0.02,0.89,11497692
-1.34,-0.87,0.01,-0.02,0.89,11501646
-1.34,-0.87,0.01,-0.02,0.89,11505607
-1.34,-0.87,0.01,-0.02,0.89,11509562
-1.34,-0.87,0.01,-0.02,0.89,11513514
-1.34,-0.87,0.01,-0.02,0.89,11517464
-1.34,-0.87,0.01,-0.02,0.89,11521415
-1.34,-0.86,0.01,-0.02,0.89,11525376
-1.34,-0.86,0.01,-0.02,0.89,11529323
-1.34,-0.86,0.01,-0.02,0.89,11533283
-1.34,-0.86,0.01,-0.02,0.89,11537232
-1.34,-0.86,0.01,-0.02,0.89,11541182
-1.34,-0.86,0.01,-0.02,0.89,11545137
-1.34,-0.86,0.01,-0.02,0.90,11549078
-1.34,-0.86,0.01,-0.02,0.89,11553038
-1.34,-0.86,0.01,-0.02,0.89,11556981
-1.34,-0.86,0.01,-0.02,0.89,11560937
-1.34,-0.86,0.01,-0.02,0.89,11564896
-1.34,-0.86,0.01,-0.02,0.89,11568839
-1.34,-0.86,0.01,-0.02,0.89,11572797
-1.34,-0.86,0.01,-0.02,0.89,11576736
-1.34,-0.86,0.01,-0.02,0.89,11580684
-1.34,-0.86,0.01,-0.02,0.89,11584640
-1.34,-0.86,0.01,-0.02,0.89,11588587
-1.34,-0.86,0.01,-0.02,0.89,11592541
-1.34,-0.86,0.01,-0.02,0.89,11596486
-1.34,-0.86,0.01,-0.02,0.89,11600437
-1.34,-0.86,0.01,-0.02,0.89,11604391
-1.34,-0.86,0.01,-0.02,0.89,11608344
-1.34,-0.86,0.01,-0.02,0.89,11612312
-1.35,-0.86,0.01,-0.02,0.89,11616265
-1.35,-0.86,0.01,-0.02,0.89,11620226
-1.35,-0.86,0.01,-0.02,0.89,11624174
-1.35,-0.86,0.01,-0.02,0.89,11628124
-1.34,-0.86,0.01,-0.02,0.89,11632082
-1.34,-0.86,0.01,-0.02,0.89,11636034
-1.34,-0.86,0.01,-0.02,0.89,11639997
-1.34,-0.86,0.01,-0.02,0.89,11643942
-1.34,-0.86,0.01,-0.02,0.89,11647897
-1.34,-0.86,0.01,-0.02,0.89,11651855
-1.34,-0.86,0.01,-0.02,0.89,11655799
-1.34,-0.86,0.01,-0.02,0.89,11659757
-1.34,-0.86,0.01,-0.02,0.89,11663707
-1.34,-0.86,0.01,-0.02,0.89,11667657
-1.34,-0.86,0.01,-0.02,0.89,11671612
-1.34,-0.86,0.01,-0.02,0.89,11675562
-1.34,-0.86,0.01,-0.02,0.89,11679519
-1.34,-0.86,0.01,-0.02,0.89,11683465
-1.34,-0.86,0.02,-0.02,0.89,11687414
-1.34,-0.86,0.01,-0.02,0.89,11691381
-1.34,-0.86,0.01,-0.02,0.89,11695327
-1.34,-0.86,0.01,-0.02,0.89,11699289
-1.34,-0.86,0.01,-0.02,0.89,11703239
-1.34,-0.86,0.01,-0.02,0.89,11707186
-1.34,-0.86,0.01,-0.02,0.89,11711141
-1.34,-0.86,0.01,-0.02,0.89,11715092
-1.34,-0.86,0.01,-0.02,0.89,11719044
-1.34,-0.86,0.01,-0.02,0.89,11722990
-1.34,-0.86,0.01,-0.02,0.89,11726944
-1.34,-0.86,0.01,-0.02,0.89,11730898
-1.34,-0.86,0.01,-0.02,0.89,11734843
-1.34,-0.86,0.01,-0.02,0.89,11738802
-1.34,-0.86,0.01,-0.02,0.89,11742749
-1.34,-0.86,0.01,-0.02,0.89,11746707
-1.34,-0.86,0.01,-0.02,0.89,11750656
-1.34,-0.86,0.01,-0.02,0.89,11754607
-1.34,-0.86,0.01,-0.02,0.89,11758563
-1.34,-0.86,0.01,-0.02,0.89,11762512
-1.34,-0.86,0.01,-0.02,0.89,11766470
-1.34,-0.86,0.01,-0.02,0.89,11770419
-1.34,-0.86,0.01,-0.02,0.89,11774372
-1.34,-0.86,0.01,-0.02,0.89,11778335
-1.34,-0.86,0.01,-0.02,0.89,11782284
-1.34,-0.86,0.01,-0.02,0.89,11786240
-1.34,-0.86,0.01,-0.02,0.89,11790187
-1.34,-0.86,0.01,-0.02,0.89,11794133
-1.34,-0.86,0.01,-0.02,0.89,11798090
-1.34,-0.86,0.01,-0.02,0.89,11802044
-1.34,-0.86,0.01,-0.02,0.89,11806002
-1.34,-0.86,0.01,-0.02,0.89,11809949
-1.34,-0.86,0.01,-0.02,0.89,11813907
-1.34,-0.86,0.01,-0.02,0.89,11817865
-1.34,-0.86,0.01,-0.02,0.89,11821806
-1.34,-0.86,0.01,-0.02,0.89,11825766
-1.34,-0.86,0.01,-0.02,0.89,11829715
-1.34,-0.86,0.01,-0.02,0.89,11833670
-1.34,-0.86,0.01,-0.02,0.89,11837631
-1.34,-0.86,0.01,-0.02,0.89,11841577
-1.34,-0.86,0.01,-0.02,0.89,11845536
-1.34,-0.86,0.01,-0.02,0.89,11849480
-1.34,-0.86,0.01,-0.02,0.89,11853431
-1.34,-0.86,0.01,-0.02,0.89,11857383
-1.34,-0.86,0.01,-0.02,0.89,11861333
-1.34,-0.86,0.01,-0.02,0.89,11865295
-1.34,-0.86,0.01,-0.02,0.89,11869242
-1.34,-0.86,0.01,-0.02,0.89,11873207
-1.34,-0.86,0.01,-0.02,0.89,11877159
-1.34,-0.86,0.01,-0.02,0.89,11881109
-1.35,-0.86,0.01,-0.02,0.89,11885071
-1.35,-0.86,0.01,-0.02,0.89,11889024
-1.35,-0.86,0.01,-0.02,0.89,11892978
-1.35,-0.86,0.01,-0.02,0.89,11896921
-1.35,-0.86,0.01,-0.02,0.89,11900874
-1.35,-0.86,0.01,-0.02,0.89,11904829
-1.35,-0.86,0.01,-0.02,0.89,11908776
-1.35,-0.86,0.01,-0.02,0.89,11912735
-1.35,-0.86,0.01,-0.02,0.89,11916682
-1.35,-0.86,0.01,-0.02,0.89,11920637
-1.35,-0.86,0.01,-0.02,0.89,11924593
-1.35,-0.86,0.02,-0.02,0.89,11928539
-1.35,-0.86,0.02,-0.02,0.89,11932499
-1.35,-0.86,0.01,-0.02,0.89,11936441
-1.35,-0.86,0.01,-0.02,0.89,11940392
-1.35,-0.86,0.01,-0.02,0.89,11944355
-1.35,-0.86,0.01,-0.02,0.89,11948300
-1.35,-0.86,0.01,-0.02,0.89,11952256
-1.35,-0.86,0.01,-0.02,0.89,11956208
-1.35,-0.86,0.01,-0.02,0.89,11960163
-1.35,-0.86,0.01,-0.02,0.89,11964121
-1.35,-0.86,0.01,-0.02,0.89,11968067
-1.35,-0.86,0.01,-0.02,0.89,11972027
-1.35,-0.86,0.01,-0.02,0.89,11975977
-1.35,-0.86,0.01,-0.02,0.89,11979930
-1.35,-0.86,0.01,-0.02,0.89,11983883
-1.35,-0.86,0.01,-0.02,0.89,11987827
-1.35,-0.87,0.01,-0.02,0.89,11991792
-1.35,-0.87,0.01,-0.02,0.89,11995737
-1.35,-0.87,0.01,-0.02,0.89,11999696
-1.35,-0.87,0.01,-0.02,0.89,12003645
-1.34,-0.87,0.01,-0.02,0.89,12007592
-1.34,-0.87,0.01,-0.02,0.89,12011553
-1.34,-0.87,0.01,-0.02,0.89,12015503
-1.34,-0.87,0.01,-0.02,0.89,12019456
-1.34,-0.87,0.01,-0.02,0.89,12023409
-1.34,-0.87,0.01,-0.02,0.89,12027364
-1.34,-0.87,0.01,-0.02,0.89,12031320
-1.34,-0.87,0.01,-0.02,0.89,12035258
-1.34,-0.87,0.01,-0.02,0.89,12039220
-1.34,-0.87,0.01,-0.02,0.89,12043169
-1.34,-0.87,0.01,-0.02,0.89,12047119
-1.34,-0.87,0.01,-0.02,0.89,12051075
-1.34,-0.87,0.01,-0.02,0.89,12055022
-1.34,-0.87,0.01,-0.02,0.89,12058981
-1.34,-0.87,0.01,-0.02,0.89,12062924
-1.34,-0.87,0.01,-0.02,0.89,12066880
-1.34,-0.87,0.01,-0.02,0.89,12070832
-1.34,-0.87,0.01,-0.02,0.89,12074775
-1.34,-0.87,0.01,-0.02,0.89,12078733
-1.34,-0.87,0.01,-0.02,0.89,12082673
-1.34,-0.87,0.01,-0.02,0.89,12086631
-1.34,-0.87,0.01,-0.02,0.89,12090591
-1.34,-0.87,0.01,-0.02,0.89,12094539
-1.34,-0.87,0.01,-0.02,0.89,12098501
-1.34,-0.87,0.01,-0.02,0.89,12102451
-1.34,-0.87,0.01,-0.02,0.89,12106408
-1.34,-0.87,0.01,-0.02,0.89,12110360
-1.34,-0.87,0.01,-0.02,0.89,12114311
-1.34,-0.87,0.01,-0.02,0.89,12118274
-1.34,-0.87,0.01,-0.02,0.89,12122225
-1.34,-0.87,0.01,-0.02,0.89,12126178
-1.34,-0.87,0.01,-0.02,0.89,12130131
-1.34,-0.87,0.01,-0.02,0.89,12134085
-1.34,-0.87,0.01,-0.02,0.89,12138042
-1.34,-0.87,0.01,-0.02,0.89,12141987
-1.34,-0.87,0.01,-0.02,0.89,12145950
-1.34,-0.87,0.01,-0.02,0.89,12149899
-1.34,-0.87,0.01,-0.02,0.89,12153850
-1.34,-0.87,0.01,-0.02,0.89,12157811
-1.34,-0.87,0.01,-0.02,0.89,12161757
-1.34,-0.87,0.01,-0.02,0.89,12165717
-1.34,-0.87,0.01,-0.02,0.89,12169665
-1.34,-0.87,0.02,-0.02,0.89,12173616
-1.34,-0.87,0.01,-0.02,0.89,12177575
-1.34,-0.87,0.01,-0.02,0.89,12181516
-1.34,-0.87,0.01,-0.02,0.89,12185476
-1.34,-0.87,0.01,-0.02,0.89,12189421
-1.34,-0.87,0.01,-0.02,0.89,12193377
-1.34,-0.87,0.01,-0.02,0.89,12197339
-1.34,-0.87,0.01,-0.02,0.89,12201284
-1.34,-0.87,0.01,-0.02,0.89,12205243
-1.34,-0.87,0.01,-0.02,0.89,12209192
-1.34,-0.87,0.01,-0.02,0.89,12213147
-1.34,-0.87,0.02,-0.02,0.89,12217105
-1.34,-0.87,0.01,-0.02,0.89,12221057
-1.34,-0.87,0.01,-0.02,0.89,12225014
-1.34,-0.87,0.01,-0.02,0.89,12228966
-1.34,-0.87,0.01,-0.02,0.89,12232916
-1.34,-0.87,0.01,-0.02,0.89,12236873
-1.35,-0.87,0.01,-0.02,0.89,12240824
-1.35,-0.87,0.01,-0.02,0.89,12244784
-1.35,-0.87,0.01,-0.02,0.89,12248733
-1.35,-0.87,0.01,-0.02,0.89,12252686
-1.35,-0.87,0.01,-0.02,0.89,12256635
-1.35,-0.87,0.01,-0.02,0.89,12260582
-1.34,-0.87,0.01,-0.02,0.89,12264540
-1.34,-0.87,0.01,-0.02,0.89,12268481
-1.35,-0.87,0.01,-0.02,0.89,12272439
-1.35,-0.87,0.01,-0.02,0.89,12276390
-1.35,-0.87,0.01,-0.02,0.89,12280349
-1.35,-0.87,0.01,-0.02,0.89,12284311
-1.35,-0.87,0.01,-0.02,0.89,12288254
-1.34,-0.87,0.01,-0.02,0.89,12292212
-1.34,-0.87,0.01,-0.02,0.89,12296156
-1.34,-0.87,0.01,-0.02,0.89,12300111
-1.34,-0.87,0.01,-0.02,0.89,12304069
-1.34,-0.87,0.01,-0.02,0.89,12308012
-1.34,-0.87,0.01,-0.02,0.89,12311973
-1.34,-0.87,0.01,-0.02,0.89,12315918
-1.34,-0.87,0.01,-0.02,0.89,12319868
-1.34,-0.87,0.01,-0.02,0.89,12323826
-1.34,-0.87,0.01,-0.02,0.89,12327774
-1.34,-0.87,0.01,-0.02,0.89,12331730
-1.34,-0.87,0.01,-0.02,0.89,12335676
-1.34,-0.87,0.01,-0.02,0.89,12339627
-1.34,-0.87,0.01,-0.02,0.90,12343584
-1.34,-0.87,0.01,-0.02,0.89,12347535
-1.34,-0.87,0.01,-0.02,0.89,12351482
-1.34,-0.87,0.01,-0.02,0.89,12355429
-1.34,-0.87,0.01,-0.02,0.90,12359380
-1.34,-0.87,0.01,-0.02,0.90,12363333
-1.34,-0.87,0.01,-0.02,0.90,12367277
-1.34,-0.87,0.01,-0.02,0.89,12371235
-1.34,-0.87,0.01,-0.02,0.89,12375177
-1.34,-0.87,0.01,-0.02,0.89,12379139
-1.34,-0.87,0.01,-0.02,0.89,12383090
-1.34,-0.87,0.01,-0.02,0.89,12387041
-1.34,-0.87,0.01,-0.02,0.89,12391000
-1.34,-0.87,0.01,-0.02,0.89,12394945
-1.34,-0.87,0.01,-0.02,0.89,12398901
-1.34,-0.87,0.01,-0.02,0.89,12402842
-1.34,-0.87,0.01,-0.02,0.89,12406794
-1.34,-0.87,0.01,-0.02,0.89,12410755
-1.34,-0.87,0.01,-0.02,0.89,12414699
-1.34,-0.87,0.01,-0.02,0.89,12418658
-1.34,-0.87,0.01,-0.02,0.89,12422604
-1.34,-0.87,0.01,-0.02,0.89,12426565
-1.34,-0.87,0.01,-0.02,0.89,12430525
-1.34,-0.87,0.01,-0.02,0.89,12434470
-1.34,-0.87,0.01,-0.02,0.89,12438430
-1.34,-0.87,0.01,-0.02,0.89,12442377
-1.34,-0.87,0.01,-0.02,0.89,12446332
-1.34,-0.87,0.01,-0.02,0.89,12450291
-1.34,-0.87,0.01,-0.02,0.89,12454237
-1.34,-0.87,0.01,-0.02,0.89,12458198
-1.34,-0.87,0.01,-0.02,0.89,12462145
-1.34,-0.87,0.01,-0.02,0.89,12466098
-1.34,-0.87,0.01,-0.02,0.89,12470056
-1.34,-0.87,0.01,-0.02,0.89,12474004
-1.34,-0.87,0.01,-0.02,0.89,12477964
-1.34,-0.87,0.01,-0.02,0.89,12481909
-1.34,-0.87,0.01,-0.02,0.89,12485865
-1.34,-0.87,0.01,-0.02,0.89,12489819
-1.35,-0.87,0.01,-0.02,0.89,12493762
-1.34,-0.87,0.01,-0.02,0.89,12497721
-1.34,-0.87,0.01,-0.02,0.89,12501671
-1.34,-0.87,0.01,-0.02,0.89,12505630
-1.34,-0.87,0.01,-0.02,0.89,12509584
-1.34,-0.87,0.01,-0.02,0.89,12513534
-1.34,-0.87,0.01,-0.02,0.89,12517499
-1.34,-0.87,0.01,-0.02,0.89,12521443
-1.34,-0.87,0.01,-0.02,0.89,12525402
-1.34,-0.87,0.01,-0.02,0.89,12529350
-1.34,-0.87,0.01,-0.02,0.89,12533306
-1.34,-0.87,0.01,-0.02,0.89,12537264
-1.34,-0.87,0.01,-0.02,0.89,12541214
-1.34,-0.87,0.01,-0.02,0.89,12545174
-1.34,-0.87,0.01,-0.02,0.89,12549126
-1.34,-0.87,0.01,-0.02,0.89,12553083
-1.34,-0.87,0.01,-0.02,0.89,12557042
-1.34,-0.87,0.01,-0.02,0.89,12560987
-1.34,-0.87,0.01,-0.02,0.89,12564947
-1.34,-0.87,0.01,-0.02,0.89,12568899
-1.34,-0.87,0.01,-0.02,0.89,12572852
-1.34,-0.87,0.01,-0.02,0.89,12576817
-1.34,-0.87,0.01,-0.02,0.89,12580763
-1.34,-0.87,0.01,-0.02,0.89,12584723
-1.34,-0.87,0.01,-0.02,0.89,12588668
-1.34,-0.87,0.01,-0.02,0.89,12592624
-1.34,-0.87,0.01,-0.02,0.89,12596578
-1.34,-0.87,0.01,-0.02,0.89,12600524
-1.34,-0.87,0.01,-0.02,0.89,12604481
-1.34,-0.87,0.01,-0.02,0.89,12608426
-1.34,-0.87,0.01,-0.02,0.89,12612380
-1.34,-0.87,0.01,-0.02,0.89,12616341
-1.34,-0.87,0.01,-0.02,0.89,12620292
-1.34,-0.87,0.01,-0.02,0.89,12624248
-1.34,-0.87,0.01,-0.02,0.89,12628193
-1.34,-0.87,0.01,-0.02,0.89,12632156
-1.34,-0.87,0.01,-0.02,0.89,12636110
-1.34,-0.87,0.01,-0.02,0.89,12640058
-1.34,-0.87,0.01,-0.02,0.89,12644020
-1.34,-0.87,0.01,-0.02,0.89,12647966
-1.34,-0.87,0.01,-0.02,0.89,12651930
-1.34,-0.87,0.01,-0.02,0.89,12655878
-1.35,-0.87,0.01,-0.02,0.89,12659828
-1.35,-0.87,0.01,-0.02,0.89,12663787
-1.35,-0.87,0.01,-0.02,0.89,12667741
-1.35,-0.87,0.01,-0.02,0.89,12671698
-1.35,-0.87,0.01,-0.02,0.89,12675648
-1.35,-0.87,0.01,-0.02,0.89,12679596
-1.35,-0.86,0.01,-0.02,0.89,12683555
-1.35,-0.86,0.01,-0.02,0.89,12687504
-1.35,-0.86,0.01,-0.02,0.89,12691462
-1.35,-0.86,0.01,-0.02,0.89,12695413
-1.35,-0.86,0.01,-0.02,0.89,12699364
-1.35,-0.86,0.01,-0.02,0.89,12703319
-1.35,-0.86,0.01,-0.02,0.89,12707274
-1.35,-0.86,0.01,-0.02,0.89,12711236
-1.35,-0.86,0.01,-0.02,0.89,12715183
-1.34,-0.86,0.01,-0.02,0.89,12719141
-1.34,-0.86,0.01,-0.02,0.89,12723103
-1.34,-0.86,0.01,-0.02,0.89,12727046
-1.34,-0.86,0.01,-0.02,0.89,12731008
-1.34,-0.86,0.01,-0.02,0.89,12734956
-1.34,-0.86,0.01,-0.02,0.89,12738904
-1.34,-0.86,0.01,-0.02,0.89,12742860
-1.34,-0.86,0.01,-0.02,0.89,12746808
-1.34,-0.87,0.01,-0.02,0.89,12750758
-1.34,-0.87,0.01,-0.02,0.89,12754705
-1.34,-0.87,0.01,-0.02,0.89,12758665
-1.34,-0.87,0.01,-0.02,0.89,12762607
-1.34,-0.87,0.01,-0.02,0.89,12766554
-1.34,-0.87,0.01,-0.02,0.89,12770519
-1.34,-0.87,0.01,-0.02,0.89,12774464
-1.34,-0.87,0.01,-0.02,0.89,12778426
-1.34,-0.86,0.01,-0.02,0.89,12782375
-1.34,-0.86,0.01,-0.02,0.89,12786325
-1.34,-0.86,0.01,-0.02,0.89,12790286
-1.34,-0.86,0.01,-0.02,0.89,12794235
-1.34,-0.86,0.01,-0.02,0.89,12798187
-1.34,-0.86,0.01,-0.02,0.89,12802137
-1.34,-0.86,0.01,-0.02,0.89,12806091
-1.34,-0.86,0.01,-0.02,0.89,12810047
-1.34,-0.86,0.01,-0.02,0.89,12813993
-1.34,-0.86,0.01,-0.02,0.89,12817954
-1.34,-0.86,0.01,-0.02,0.89,12821907
-1.34,-0.86,0.01,-0.02,0.89,12825864
-1.34,-0.86,0.01,-0.02,0.89,12829817
-1.34,-0.86,0.01,-0.02,0.89,12833762
-1.34,-0.86,0.01,-0.02,0.89,12837720
-1.34,-0.86,0.01,-0.02,0.89,12841667
-1.34,-0.86,0.01,-0.02,0.89,12845615
-1.34,-0.86,0.01,-0.02,0.89,12849570
-1.34,-0.86,0.01,-0.02,0.89,12853518
-1.34,-0.86,0.01,-0.02,0.89,12857476
-1.34,-0.86,0.01,-0.02,0.89,12861423
-1.34,-0.86,0.01,-0.02,0.89,12865379
-1.34,-0.86,0.01,-0.02,0.89,12869337
-1.34,-0.86,0.01,-0.02,0.89,12873287
-1.34,-0.86,0.01,-0.02,0.89,12877246
-1.34,-0.86,0.01,-0.02,0.89,12881189
-1.34,-0.86,0.01,-0.02,0.89,12885147
-1.34,-0.86,0.01,-0.02,0.89,12889093
-1.34,-0.86,0.01,-0.02,0.89,12893037
-1.34,-0.86,0.01,-0.02,0.89,12896995
-1.34,-0.86,0.01,-0.02,0.89,12900941
-1.34,-0.86,0.01,-0.02,0.89,12904901
-1.34,-0.86,0.01,-0.02,0.89,12908846
-1.34,-0.86,0.01,-0.02,0.89,12912798
-1.34,-0.86,0.01,-0.02,0.89,12916760
-1.34,-0.86,0.01,-0.02,0.89,12920706
-1.34,-0.86,0.01,-0.02,0.89,12924668
-1.34,-0.86,0.01,-0.02,0.89,12928617
-1.34,-0.86,0.01,-0.02,0.89,12932565
-1.34,-0.86,0.01,-0.02,0.89,12936521
-1.34,-0.86,0.01,-0.02,0.89,12940466
-1.34,-0.86,0.01,-0.02,0.89,12944421
-1.34,-0.86,0.01,-0.02,0.89,12948367
-1.34,-0.86,0.01,-0.02,0.89,12952319
-1.34,-0.86,0.01,-0.02,0.89,12956274
-1.34,-0.86,0.01,-0.02,0.89,12960223
-1.34,-0.86,0.01,-0.02,0.89,12964183
-1.34,-0.86,0.01,-0.02,0.89,12968130
-1.34,-0.86,0.01,-0.02,0.89,12972086
-1.34,-0.86,0.01,-0.02,0.89,12976047
-1.34,-0.86,0.01,-0.02,0.89,12979992
-1.34,-0.86,0.01,-0.02,0.89,12983948
-1.34,-0.86,0.01,-0.02,0.89,12987896
-1.34,-0.86,0.01,-0.02,0.89,12991846
-1.34,-0.86,0.01,-0.02,0.89,12995800
-1.34,-0.86,0.01,-0.02,0.89,12999751
-1.34,-0.86,0.01,-0.02,0.89,13003712
-1.34,-0.86,0.01,-0.02,0.89,13007658
-1.34,-0.86,0.01,-0.02,0.89,13011616
-1.34,-0.86,0.01,-0.02,0.89,13015560
-1.34,-0.86,0.01,-0.02,0.89,13019508
-1.34,-0.86,0.01,-0.02,0.89,13023463
-1.34,-0.86,0.01,-0.02,0.89,13027411
-1.34,-0.86,0.01,-0.02,0.89,13031370
-1.34,-0.86,0.01,-0.02,0.89,13035316
-1.34,-0.86,0.01,-0.02,0.89,13039267
-1.34,-0.86,0.01,-0.02,0.89,13043227
-1.34,-0.86,0.01,-0.02,0.89,13047170
-1.34,-0.86,0.01,-0.02,0.89,13051126
-1.34,-0.86,0.01,-0.02,0.89,13055073
-1.34,-0.86,0.01,-0.02,0.89,13059023
-1.34,-0.86,0.01,-0.02,0.90,13062977
-1.34,-0.86,0.01,-0.02,0.90,13066923
-1.34,-0.86,0.01,-0.02,0.90,13070878
-1.34,-0.86,0.01,-0.02,0.90,13074825
-1.34,-0.86,0.01,-0.02,0.90,13078772
-1.34,-0.86,0.01,-0.02,0.89,13082729
-1.34,-0.86,0.01,-0.02,0.90,13086670
-1.34,-0.86,0.01,-0.02,0.89,13090620
-1.34,-0.85,0.01,-0.02,0.89,13094565
-1.34,-0.85,0.01,-0.02,0.89,13098519
-1.34,-0.85,0.01,-0.02,0.89,13102477
-1.34,-0.85,0.01,-0.02,0.89,13106423
-1.34,-0.85,0.01,-0.02,0.89,13110379
-1.34,-0.85,0.01,-0.02,0.89,13114328
-1.34,-0.85,0.01,-0.02,0.89,13118284
-1.34,-0.85,0.01,-0.02,0.89,13122237
-1.34,-0.85,0.01,-0.02,0.89,13126186
-1.34,-0.85,0.01,-0.02,0.89,13130148
-1.34,-0.85,0.01,-0.02,0.89,13134093
-1.34,-0.85,0.01,-0.02,0.89,13138054
-1.34,-0.85,0.01,-0.02,0.89,13142003
-1.34,-0.85,0.01,-0.02,0.89,13145957
-1.34,-0.85,0.01,-0.02,0.89,13149913
-1.34,-0.85,0.01,-0.02,0.89,13153856
-1.34,-0.85,0.01,-0.02,0.89,13157814
-1.34,-0.85,0.01,-0.02,0.89,13161759
-1.34,-0.85,0.01,-0.02,0.89,13165712
-1.33,-0.85,0.01,-0.02,0.89,13169670
-1.33,-0.85,0.01,-0.02,0.89,13173615
-1.33,-0.85,0.01,-0.02,0.89,13177567
-1.33,-0.85,0.01,-0.02,0.89,13181515
-1.33,-0.85,0.01,-0.02,0.89,13185464
-1.33,-0.85,0.01,-0.02,0.89,13189424
-1.33,-0.85,0.01,-0.02,0.89,13193379
-1.33,-0.85,0.01,-0.02,0.89,13197338
-1.33,-0.85,0.01,-0.02,0.89,13201290
-1.33,-0.85,0.01,-0.02,0.89,13205249
-1.33,-0.85,0.01,-0.02,0.89,13209205
-1.33,-0.85,0.01,-0.02,0.89,13213152
-1.33,-0.85,0.01,-0.02,0.89,13217116
-1.33,-0.85,0.01,-0.02,0.89,13221066
-1.33,-0.85,0.01,-0.02,0.89,13225017
-1.33,-0.85,0.01,-0.02,0.89,13228972
-1.33,-0.85,0.01,-0.02,0.89,13232919
-1.33,-0.86,0.01,-0.02,0.89,13236880
-1.33,-0.86,0.01,-0.02,0.89,13240820
-1.33,-0.86,0.01,-0.02,0.89,13244774
-1.33,-0.86,0.01,-0.02,0.89,13248723
-1.34,-0.85,0.01,-0.02,0.89,13252669
-1.34,-0.85,0.01,-0.02,0.89,13256632
-1.34,-0.85,0.01,-0.02,0.89,13260576
-1.34,-0.85,0.01,-0.02,0.89,13264532
-1.34,-0.85,0.01,-0.02,0.89,13268484
-1.34,-0.85,0.01,-0.02,0.89,13272432
-1.34,-0.85,0.01,-0.02,0.89,13276398
-1.34,-0.85,0.01,-0.02,0.89,13280350
-1.34,-0.85,0.01,-0.02,0.89,13284313
-1.34,-0.85,0.01,-0.02,0.89,13288265
-1.34,-0.85,0.01,-0.02,0.89,13292224
-1.34,-0.85,0.01,-0.02,0.89,13296185
-1.34,-0.85,0.01,-0.02,0.89,13300136
-1.34,-0.85,0.01,-0.02,0.89,13304095
-1.34,-0.85,0.01,-0.02,0.89,13308039
-1.34,-0.85,0.01,-0.02,0.89,13311984
-1.34,-0.85,0.01,-0.02,0.89,13315939
-1.34,-0.85,0.01,-0.02,0.89,13319880
-1.34,-0.85,0.01,-0.02,0.89,13323835
-1.34,-0.85,0.01,-0.02,0.89,13327782
-1.34,-0.85,0.01,-0.02,0.89,13331732
-1.34,-0.85,0.01,-0.02,0.89,13335689
-1.34,-0.85,0.01,-0.02,0.90,13339629
-1.34,-0.85,0.01,-0.02,0.89,13343595
-1.34,-0.85,0.01,-0.02,0.89,13347537
-1.34,-0.85,0.01,-0.02,0.89,13351489
-1.34,-0.85,0.01,-0.02,0.89,13355450
-1.34,-0.85,0.01,-0.02,0.89,13359399
-1.34,-0.85,0.01,-0.02,0.89,13363364
-1.34,-0.85,0.01,-0.02,0.89,13367313
-1.34,-0.85,0.01,-0.02,0.89,13371269
-1.34,-0.86,0.01,-0.02,0.89,13375224
-1.34,-0.86,0.01,-0.02,0.89,13379169
-1.34,-0.86,0.01,-0.02,0.89,13383126
-1.34,-0.86,0.01,-0.02,0.89,13387074
-1.34,-0.86,0.01,-0.02,0.89,13391031
-1.34,-0.86,0.01,-0.02,0.89,13394980
-1.34,-0.86,0.01,-0.02,0.89,13398933
-1.34,-0.86,0.01,-0.02,0.89,13402897
-1.34,-0.86,0.01,-0.02,0.89,13406847
-1.34,-0.86,0.01,-0.02,0.89,13410808
-1.34,-0.86,0.01,-0.02,0.89,13414753
-1.34,-0.86,0.01,-0.02,0.89,13418704
-1.34,-0.86,0.01,-0.02,0.89,13422662
-1.34,-0.86,0.01,-0.02,0.89,13426611
-1.34,-0.86,0.01,-0.02,0.89,13430575
-1.34,-0.86,0.01,-0.02,0.89,13434518
-1.34,-0.86,0.01,-0.02,0.89,13438474
-1.34,-0.86,0.01,-0.02,0.89,13442441
-1.34,-0.86,0.01,-0.02,0.89,13446387
-1.34,-0.86,0.01,-0.02,0.89,13450349
-1.34,-0.86,0.01,-0.02,0.89,13454295
-1.34,-0.86,0.01,-0.02,0.89,13458251
-1.34,-0.86,0.01,-0.02,0.89,13462207
-1.34,-0.86,0.01,-0.02,0.89,13466154
-1.34,-0.86,0.01,-0.02,0.89,13470116
-1.34,-0.86,0.01,-0.02,0.89,13474065
-1.34,-0.86,0.01,-0.02,0.89,13478018
-1.34,-0.86,0.01,-0.02,0.89,13481978
-1.34,-0.86,0.01,-0.02,0.89,13485929
-1.34,-0.86,0.01,-0.02,0.89,13489889
-1.34,-0.86,0.01,-0.02,0.89,13493835
-1.34,-0.86,0.01,-0.02,0.89,13497791
-1.34,-0.86,0.01,-0.02,0.89,13501745
-1.34,-0.86,0.01,-0.02,0.89,13505687
-1.34,-0.86,0.01,-0.02,0.89,13509646
-1.34,-0.86,0.01,-0.02,0.89,13513596
-1.34,-0.86,0.01,-0.02,0.89,13517556
-1.34,-0.86,0.01,-0.02,0.89,13521499
-1.34,-0.86,0.01,-0.02,0.89,13525447
-1.34,-0.86,0.01,-0.02,0.89,13529412
-1.34,-0.86,0.01,-0.02,0.89,13533360
-1.34,-0.86,0.01,-0.02,0.89,13537323
-1.34,-0.86,0.01,-0.02,0.90,13541270
-1.34,-0.86,0.01,-0.02,0.89,13545223
-1.34,-0.86,0.01,-0.02,0.89,13549176
-1.34,-0.86,0.01,-0.02,0.89,13553122
-1.34,-0.86,0.01,-0.02,0.89,13557079
-1.34,-0.86,0.01,-0.02,0.89,13561027
-1.34,-0.86,0.01,-0.02,0.89,13564981
-1.34,-0.86,0.01,-0.02,0.89,13568939
-1.34,-0.86,0.01,-0.02,0.89,13572884
-1.34,-0.86,0.01,-0.02,0.89,13576846
-1.34,-0.86,0.01,-0.02,0.89,13580789
-1.34,-0.86,0.01,-0.02,0.89,13584746
-1.34,-0.86,0.01,-0.02,0.89,13588705
-1.34,-0.86,0.01,-0.02,0.89,13592646
-1.34,-0.86,0.01,-0.02,0.89,13596608
-1.34,-0.86,0.01,-0.02,0.89,13600550
-1.34,-0.86,0.01,-0.02,0.89,13604501
-1.34,-0.86,0.01,-0.02,0.89,13608462
-1.34,-0.86,0.01,-0.02,0.89,13612405
-1.34,-0.86,0.01,-0.02,0.89,13616364
-1.34,-0.86,0.01,-0.02,0.89,13620312
-1.35,-0.86,0.01,-0.02,0.89,13624261
-1.35,-0.86,0.01,-0.02,0.89,13628213
-1.35,-0.86,0.01,-0.02,0.89,13632164
-1.35,-0.86,0.01,-0.02,0.89,13636124
-1.35,-0.86,0.01,-0.02,0.89,13640070
-1.35,-0.86,0.01,-0.02,0.89,13644028
-1.35,-0.86,0.01,-0.02,0.89,13647977
-1.35,-0.86,0.01,-0.02,0.89,13651930
-1.35,-0.86,0.01,-0.02,0.89,13655886
-1.34,-0.86,0.01,-0.02,0.89,13659834
-1.34,-0.86,0.01,-0.02,0.89,13663796
-1.35,-0.86,0.01,-0.02,0.89,13667739
-1.35,-0.86,0.01,-0.02,0.89,13671692
-1.35,-0.86,0.01,-0.02,0.89,13675650
-1.35,-0.86,0.01,-0.02,0.89,13679590
-1.35,-0.86,0.01,-0.02,0.89,13683545
-1.35,-0.86,0.01,-0.02,0.89,13687493
-1.35,-0.86,0.01,-0.02,0.89,13691450
-1.35,-0.86,0.01,-0.02,0.89,13695410
-1.35,-0.86,0.01,-0.02,0.89,13699353
-1.35,-0.86,0.01,-0.02,0.89,13703315
-1.35,-0.86,0.01,-0.02,0.89,13707261
-1.34,-0.86,0.01,-0.02,0.89,13711215
-1.34,-0.86,0.01,-0.02,0.89,13715176
-1.34,-0.86,0.01,-0.02,0.89,13719123
-1.34,-0.86,0.01,-0.02,0.89,13723078
-1.34,-0.86,0.01,-0.02,0.89,13727025
-1.34,-0.85,0.01,-0.02,0.89,13730981
-1.35,-0.85,0.01,-0.02,0.89,13734940
-1.35,-0.85,0.01,-0.02,0.89,13738889
-1.35,-0.85,0.01,-0.02,0.89,13742844
-1.35,-0.85,0.01,-0.02,0.89,13746786
-1.35,-0.85,0.01,-0.02,0.89,13750740
-1.35,-0.85,0.01,-0.02,0.89,13754688
-1.35,-0.85,0.01,-0.02,0.89,13758634
-1.35,-0.85,0.01,-0.02,0.89,13762591
-1.35,-0.85,0.01,-0.02,0.89,13766535
-1.35,-0.85,0.01,-0.02,0.89,13770490
-1.35,-0.85,0.01,-0.02,0.89,13774444
-1.35,-0.85,0.01,-0.02,0.89,13778394
-1.35,-0.85,0.01,-0.02,0.89,13782354
-1.35,-0.85,0.01,-0.02,0.89,13786295
-1.35,-0.85,0.01,-0.02,0.90,13790256
-1.35,-0.85,0.01,-0.02,0.90,13794199
-1.35,-0.85,0.01,-0.02,0.89,13798154
-1.35,-0.85,0.01,-0.02,0.89,13802114
-1.35,-0.85,0.01,-0.02,0.89,13806060
-1.35,-0.85,0.01,-0.02,0.89,13810018
-1.35,-0.85,0.01,-0.02,0.89,13813968
-1.35,-0.85,0.01,-0.02,0.89,13817917
-1.35,-0.85,0.01,-0.02,0.89,13821875
-1.35,-0.85,0.01,-0.02,0.89,13825821
-1.35,-0.85,0.01,-0.02,0.89,13829779
-1.35,-0.85,0.01,-0.02,0.89,13833726
-1.35,-0.85,0.01,-0.02,0.89,13837682
-1.35,-0.85,0.01,-0.02,0.89,13841639
-1.35,-0.85,0.01,-0.02,0.89,13845585
-1.35,-0.85,0.01,-0.02,0.89,13849545
-1.35,-0.85,0.01,-0.02,0.89,13853487
-1.35,-0.85,0.01,-0.02,0.89,13857446
-1.35,-0.85,0.01,-0.02,0.89,13861409
-1.35,-0.85,0.01,-0.02,0.89,13865357
-1.35,-0.85,0.01,-0.02,0.89,13869319
-1.35,-0.85,0.01,-0.02,0.89,13873267
-1.35,-0.85,0.01,-0.02,0.89,13877220
-1.35,-0.85,0.01,-0.02,0.89,13881176
-1.35,-0.85,0.01,-0.02,0.89,13885126
-1.35,-0.86,0.01,-0.02,0.89,13889083
-1.35,-0.86,0.01,-0.02,0.89,13893034
-1.35,-0.86,0.01,-0.02,0.89,13896998
-1.35,-0.86,0.01,-0.02,0.89,13900945
-1.35,-0.86,0.01,-0.02,0.89,13904887
-1.35,-0.86,0.01,-0.02,0.89,13908846
-1.35,-0.86,0.01,-0.02,0.89,13912792
-1.35,-0.86,0.01,-0.02,0.89,13916747
-1.35,-0.86,0.01,-0.02,0.89,13920693
-1.35,-0.86,0.01,-0.02,0.89,13924641
-1.35,-0.86,0.01,-0.02,0.89,13928599
-1.35,-0.86,0.01,-0.02,0.89,13932547
-1.35,-0.86,0.01,-0.02,0.89,13936505
-1.35,-0.86,0.01,-0.02,0.89,13940448
-1.35,-0.86,0.01,-0.02,0.89,13944401
-1.35,-0.86,0.01,-0.02,0.89,13948362
-1.35,-0.85,0.01,-0.02,0.89,13952308
-1.35,-0.85,0.01,-0.02,0.89,13956272
-1.35,-0.85,0.01,-0.02,0.89,13960212
-1.35,-0.85,0.01,-0.02,0.89,13964166
-1.35,-0.85,0.01,-0.02,0.89,13968125
-1.35,-0.85,0.01,-0.02,0.89,13972071
-1.35,-0.85,0.01,-0.02,0.89,13976029
-1.35,-0.85,0.01,-0.02,0.89,13979977
-1.35,-0.85,0.01,-0.02,0.89,13983932
-1.35,-0.85,0.01,-0.02,0.89,13987892
-1.35,-0.85,0.01,-0.02,0.89,13991840
-1.35,-0.85,0.01,-0.02,0.89,13995799
-1.35,-0.85,0.01,-0.02,0.89,13999749
-1.35,-0.85,0.01,-0.02,0.89,14003704
-1.35,-0.85,0.01,-0.02,0.89,14007655
-1.35,-0.85,0.01,-0.02,0.89,14011610
-1.35,-0.85,0.01,-0.02,0.89,14015564
-1.35,-0.85,0.01,-0.02,0.89,14019508
-1.35,-0.85,0.01,-0.02,0.89,14023469
-1.35,-0.85,0.01,-0.02,0.89,14027422
-1.35,-0.85,0.01,-0.02,0.89,14031378
-1.35,-0.85,0.01,-0.02,0.89,14035339
-1.35,-0.85,0.01,-0.02,0.89,14039284
-1.35,-0.85,0.01,-0.02,0.89,14043239
-1.35,-0.85,0.01,-0.02,0.89,14047187
-1.35,-0.85,0.01,-0.02,0.89,14051141
-1.35,-0.85,0.01,-0.02,0.89,14055100
-1.35,-0.85,0.01,-0.02,0.89,14059050
-1.35,-0.85,0.01,-0.02,0.89,14063008
-1.35,-0.85,0.01,-0.02,0.89,14066956
-1.36,-0.85,0.01,-0.02,0.89,14070905
-1.36,-0.85,0.01,-0.02,0.89,14074864
-1.36,-0.85,0.01,-0.02,0.89,14078808
-1.36,-0.85,0.01,-0.02,0.89,14082769
-1.36,-0.85,0.01,-0.02,0.89,14086717
-1.35,-0.85,0.01,-0.02,0.89,14090669
-1.35,-0.85,0.01,-0.02,0.89,14094632
-1.35,-0.85,0.01,-0.02,0.89,14098575
-1.35,-0.85,0.01,-0.02,0.89,14102535
-1.35,-0.85,0.01,-0.02,0.89,14106487
-1.35,-0.85,0.01,-0.02,0.89,14110435
-1.35,-0.85,0.01,-0.02,0.89,14114397
-1.35,-0.85,0.01,-0.02,0.89,14118348
-1.35,-0.85,0.01,-0.02,0.89,14122304
-1.35,-0.85,0.01,-0.02,0.89,14126261
-1.35,-0.85,0.01,-0.02,0.89,14130208
-1.35,-0.85,0.01,-0.02,0.89,14134157
-1.35,-0.85,0.01,-0.02,0.89,14138101
-1.35,-0.85,0.01,-0.02,0.89,14142065
-1.35,-0.85,0.01,-0.02,0.89,14146018
-1.35,-0.85,0.01,-0.02,0.89,14149976
-1.35,-0.85,0.01,-0.02,0.89,14153922
-1.35,-0.84,0.01,-0.02,0.89,14157878
-1.35,-0.84,0.01,-0.02,0.89,14161836
-1.35,-0.84,0.01,-0.02,0.89,14165780
-1.35,-0.84,0.01,-0.02,0.89,14169733
-1.35,-0.84,0.01,-0.02,0.89,14173676
-1.35,-0.84,0.01,-0.02,0.89,14177627
-1.35,-0.84,0.01,-0.02,0.89,14181584
-1.35,-0.84,0.01,-0.02,0.89,14185530
-1.35,-0.84,0.01,-0.02,0.89,14189481
-1.35,-0.84,0.01,-0.02,0.89,14193432
-1.35,-0.84,0.01,-0.02,0.89,14197384
-1.35,-0.84,0.01,-0.02,0.89,14201346
-1.35,-0.84,0.01,-0.02,0.89,14205291
-1.35,-0.84,0.01,-0.02,0.89,14209252
-1.35,-0.84,0.01,-0.02,0.89,14213203
-1.35,-0.84,0.01,-0.02,0.89,14217153
-1.35,-0.84,0.01,-0.02,0.89,14221115
-1.35,-0.84,0.01,-0.02,0.89,14225063
-1.35,-0.84,0.01,-0.02,0.89,14229018
-1.35,-0.84,0.01,-0.02,0.89,14232964
-1.35,-0.84,0.01,-0.02,0.89,14236916
-1.35,-0.84,0.01,-0.02,0.89,14240873
-1.35,-0.84,0.02,-0.02,0.89,14244824
-1.35,-0.84,0.01,-0.02,0.89,14248780
-1.35,-0.84,0.02,-0.02,0.89,14252724
-1.35,-0.84,0.01,-0.02,0.89,14256678
-1.35,-0.84,0.01,-0.02,0.89,14260626
-1.35,-0.84,0.01,-0.02,0.89,14264576
-1.35,-0.84,0.01,-0.02,0.89,14268536
-1.35,-0.84,0.01,-0.02,0.89,14272480
-1.35,-0.84,0.01,-0.02,0.89,14276440
-1.35,-0.84,0.01,-0.02,0.89,14280397
-1.35,-0.84,0.01,-0.02,0.89,14284343
-1.35,-0.84,0.01,-0.02,0.89,14288303
-1.35,-0.84,0.01,-0.02,0.89,14292253
-1.35,-0.84,0.01,-0.02,0.89,14296209
-1.35,-0.84,0.01,-0.02,0.89,14300159
-1.35,-0.84,0.01,-0.02,0.89,14304112
-1.35,-0.84,0.01,-0.02,0.89,14308067
-1.35,-0.84,0.01,-0.02,0.89,14312017
-1.35,-0.84,0.01,-0.02,0.89,14315975
-1.35,-0.84,0.01,-0.02,0.89,14319925
-1.35,-0.84,0.01,-0.02,0.89,14323879
-1.35,-0.84,0.01,-0.02,0.89,14327832
-1.35,-0.84,0.01,-0.02,0.89,14331782
-1.35,-0.84,0.01,-0.02,0.89,14335742
-1.35,-0.84,0.01,-0.02,0.89,14339687
-1.36,-0.84,0.01,-0.02,0.89,14343645
-1.36,-0.84,0.01,-0.02,0.89,14347601
-1.36,-0.84,0.01,-0.02,0.89,14351548
-1.36,-0.84,0.01,-0.02,0.89,14355507
-1.35,-0.84,0.01,-0.02,0.89,14359454
-1.35,-0.84,0.01,-0.02,0.89,14363414
-1.36,-0.84,0.01,-0.02,0.89,14367370
-1.36,-0.84,0.01,-0.02,0.89,14371318
-1.36,-0.84,0.01,-0.02,0.89,14375282
-1.36,-0.84,0.02,-0.02,0.89,14379225
-1.36,-0.84,0.02,-0.02,0.89,14383175
-1.36,-0.84,0.01,-0.02,0.89,14387126
-1.36,-0.84,0.01,-0.02,0.89,14391069
-1.36,-0.84,0.01,-0.02,0.89,14395023
-1.36,-0.84,0.01,-0.02,0.89,14398971
-1.36,-0.84,0.01,-0.02,0.89,14402927
-1.36,-0.84,0.01,-0.02,0.89,14406872
-1.36,-0.84,0.01,-0.02,0.89,14410821
-1.36,-0.84,0.01,-0.02,0.89,14414773
-1.35,-0.84,0.01,-0.02,0.89,14418719
-1.35,-0.84,0.01,-0.02,0.89,14422675
-1.35,-0.84,0.01,-0.02,0.89,14426621
-1.35,-0.84,0.01,-0.02,0.89,14430581
-1.36,-0.84,0.01,-0.02,0.89,14434535
-1.36,-0.84,0.01,-0.02,0.89,14438482
-1.36,-0.84,0.01,-0.02,0.89,14442439
-1.36,-0.84,0.01,-0.02,0.89,14446389
-1.36,-0.84,0.01,-0.02,0.89,14450345
-1.36,-0.84,0.01,-0.02,0.89,14454305
-1.36,-0.84,0.01,-0.02,0.89,14458251
-1.35,-0.84,0.01,-0.02,0.89,14462209
-1.35,-0.84,0.01,-0.02,0.89,14466152
-1.35,-0.84,0.01,-0.02,0.89,14470111
-1.35,-0.84,0.01,-0.02,0.89,14474072
-1.35,-0.84,0.01,-0.02,0.89,14478020
-1.35,-0.84,0.01,-0.02,0.89,14481980
-1.35,-0.84,0.01,-0.02,0.89,14485934
-1.35,-0.84,0.01,-0.02,0.90,14489889
-1.35,-0.84,0.01,-0.02,0.90,14493845
-1.35,-0.84,0.01,-0.02,0.90,14497787
-1.35,-0.84,0.01,-0.02,0.89,14501740
-1.35,-0.84,0.01,-0.02,0.89,14505685
-1.35,-0.84,0.01,-0.02,0.89,14509633
-1.35,-0.84,0.01,-0.02,0.89,14513584
-1.35,-0.84,0.01,-0.02,0.89,14517528
-1.35,-0.84,0.01,-0.02,0.89,14521483
-1.35,-0.84,0.01,-0.02,0.89,14525428
-1.35,-0.84,0.01,-0.02,0.89,14529393
-1.35,-0.84,0.01,-0.02,0.89,14533341
-1.35,-0.84,0.01,-0.02,0.89,14537290
-1.35,-0.84,0.01,-0.02,0.89,14541249
-1.35,-0.84,0.01,-0.02,0.89,14545188
-1.35,-0.84,0.01,-0.02,0.89,14549147
-1.35,-0.84,0.01,-0.02,0.89,14553095
-1.35,-0.84,0.01,-0.02,0.89,14557045
-1.35,-0.84,0.01,-0.02,0.89,14561005
-1.35,-0.84,0.01,-0.02,0.89,14564954
-1.35,-0.84,0.01,-0.02,0.89,14568910
-1.35,-0.84,0.01,-0.02,0.89,14572855
-1.35,-0.84,0.01,-0.02,0.89,14576807
-1.35,-0.84,0.01,-0.02,0.89,14580761
-1.35,-0.84,0.01,-0.02,0.89,14584713
-1.35,-0.84,0.01,-0.02,0.89,14588670
-1.35,-0.84,0.01,-0.02,0.89,14592624
-1.35,-0.84,0.01,-0.02,0.89,14596581
-1.35,-0.84,0.01,-0.02,0.89,14600542
-1.35,-0.84,0.01,-0.02,0.89,14604492
-1.35,-0.84,0.01,-0.02,0.89,14608457
-1.35,-0.84,0.01,-0.02,0.89,14612404
-1.35,-0.84,0.01,-0.02,0.89,14616357
-1.35,-0.84,0.01,-0.02,0.89,14620316
-1.35,-0.84,0.01,-0.02,0.89,14624267
-1.35,-0.84,0.01,-0.02,0.89,14628226
-1.35,-0.84,0.01,-0.02,0.89,14632169
-1.35,-0.84,0.01,-0.02,0.89,14636123
-1.35,-0.84,0.01,-0.02,0.89,14640079
-1.35,-0.84,0.01,-0.02,0.89,14644024
-1.35,-0.84,0.01,-0.02,0.89,14647985
-1.35,-0.84,0.01,-0.02,0.89,14651932
-1.35,-0.84,0.01,-0.02,0.89,14655891
-1.35,-0.84,0.01,-0.02,0.89,14659839
-1.35,-0.84,0.01,-0.02,0.89,14663790
-1.35,-0.84,0.01,-0.02,0.89,14667745
-1.35,-0.84,0.01,-0.02,0.89,14671693
-1.35,-0.84,0.01,-0.02,0.89,14675653
-1.35,-0.84,0.01,-0.02,0.89,14679603
-1.35,-0.84,0.01,-0.02,0.89,14683552
-1.35,-0.84,0.01,-0.02,0.89,14687511
-1.35,-0.84,0.01,-0.02,0.89,14691457
-1.35,-0.84,0.01,-0.02,0.89,14695421
-1.35,-0.84,0.01,-0.02,0.89,14699366
-1.35,-0.84,0.01,-0.02,0.89,14703316
-1.35,-0.84,0.01,-0.02,0.89,14707277
-1.35,-0.84,0.01,-0.02,0.89,14711223
-1.35,-0.84,0.01,-0.02,0.89,14715179
-1.35,-0.84,0.01,-0.02,0.89,14719127
-1.36,-0.84,0.01,-0.02,0.89,14723081
-1.36,-0.84,0.01,-0.02,0.89,14727043
-1.36,-0.84,0.01,-0.02,0.89,14730990
-1.36,-0.84,0.01,-0.02,0.89,14734952
-1.36,-0.84,0.01,-0.02,0.89,14738894
-1.36,-0.84,0.01,-0.02,0.89,14742850
-1.36,-0.84,0.01,-0.02,0.89,14746808
-1.36,-0.84,0.01,-0.02,0.89,14750748
-1.36,-0.84,0.01,-0.02,0.89,14754702
-1.36,-0.84,0.01,-0.02,0.89,14758650
-1.36,-0.84,0.01,-0.02,0.89,14762602
-1.36,-0.84,0.01,-0.02,0.89,14766555
-1.36,-0.84,0.01,-0.02,0.89,14770503
-1.36,-0.84,0.01,-0.02,0.89,14774464
-1.35,-0.84,0.01,-0.02,0.89,14778409
-1.35,-0.84,0.01,-0.02,0.89,14782379
-1.35,-0.84,0.01,-0.02,0.89,14786327
-1.35,-0.84,0.01,-0.02,0.89,14790279
-1.35,-0.84,0.01,-0.02,0.89,14794241
-1.35,-0.84,0.01,-0.02,0.89,14798189
-1.35,-0.84,0.01,-0.02,0.89,14802148
-1.35,-0.84,0.01,-0.02,0.89,14806093
-1.35,-0.84,0.01,-0.02,0.89,14810049
-1.35,-0.84,0.01,-0.02,0.89,14814007
-1.35,-0.84,0.01,-0.02,0.89,14817948
-1.35,-0.84,0.01,-0.02,0.89,14821906
-1.35,-0.84,0.01,-0.02,0.89,14825856
-1.35,-0.84,0.01,-0.02,0.89,14829816
-1.35,-0.84,0.01,-0.02,0.89,14833773
-1.35,-0.84,0.01,-0.02,0.89,14837713
-1.35,-0.84,0.01,-0.02,0.89,14841675
-1.35,-0.84,0.01,-0.02,0.89,14845621
-1.35,-0.84,0.01,-0.02,0.89,14849577
-1.35,-0.84,0.01,-0.02,0.89,14853534
-1.35,-0.84,0.01,-0.02,0.89,14857477
-1.35,-0.84,0.01,-0.02,0.89,14861439
-1.35,-0.84,0.01,-0.02,0.89,14865393
-1.35,-0.84,0.01,-0.02,0.89,14869348
-1.35,-0.84,0.01,-0.02,0.89,14873307
-1.35,-0.84,0.01,-0.02,0.89,14877257
-1.35,-0.84,0.01,-0.02,0.89,14881218
-1.35,-0.84,0.01,-0.02,0.89,14885169
-1.35,-0.84,0.01,-0.02,0.89,14889121
-1.35,-0.84,0.01,-0.02,0.89,14893072
-1.35,-0.85,0.01,-0.02,0.89,14897016
-1.35,-0.85,0.01,-0.02,0.89,14900973
-1.35,-0.85,0.01,-0.02,0.89,14904924
-1.35,-0.85,0.01,-0.02,0.89,14908884
-1.35,-0.85,0.01,-0.02,0.89,14912840
-1.35,-0.85,0.01,-0.02,0.89,14916790
-1.35,-0.85,0.01,-0.02,0.89,14920746
-1.35,-0.85,0.01,-0.02,0.89,14924697
-1.35,-0.84,0.01,-0.02,0.89,14928658
-1.35,-0.84,0.01,-0.02,0.89,14932602
-1.35,-0.84,0.01,-0.02,0.89,14936552
-1.35,-0.84,0.01,-0.02,0.89,14940512
-1.35,-0.84,0.01,-0.02,0.89,14944463
-1.35,-0.84,0.01,-0.02,0.89,14948426
-1.35,-0.84,0.01,-0.02,0.89,14952370
-1.35,-0.84,0.01,-0.02,0.89,14956322
-1.35,-0.84,0.01,-0.02,0.89,14960281
-1.35,-0.84,0.01,-0.02,0.89,14964224
-1.35,-0.84,0.01,-0.02,0.89,14968181
-1.35,-0.84,0.01,-0.02,0.89,14972128
-1.35,-0.84,0.01,-0.02,0.89,14976082
-1.35,-0.84,0.01,-0.02,0.89,14980039
-1.35,-0.84,0.01,-0.02,0.89,14983988
-1.35,-0.84,0.01,-0.02,0.89,14987955
-1.35,-0.84,0.01,-0.02,0.89,14991905
-1.35,-0.84,0.01,-0.02,0.89,14995860
-1.35,-0.84,0.01,-0.02,0.89,14999817
-1.35,-0.84,0.01,-0.02,0.89,15003756
-1.35,-0.84,0.01,-0.02,0.89,15007709
-1.35,-0.84,0.01,-0.02,0.89,15011657
-1.35,-0.84,0.01,-0.02,0.89,15015611
-1.35,-0.85,0.02,-0.02,0.89,15019560
-1.35,-0.85,0.01,-0.02,0.89,15023507
-1.35,-0.85,0.01,-0.02,0.89,15027466
-1.35,-0.85,0.01,-0.02,0.89,15031415
-1.35,-0.85,0.01,-0.02,0.89,15035381
-1.35,-0.85,0.01,-0.02,0.89,15039326
-1.35,-0.85,0.01,-0.02,0.89,15043276
-1.35,-0.85,0.01,-0.02,0.89,15047231
-1.35,-0.84,0.01,-0.02,0.89,15051181
-1.35,-0.84,0.01,-0.02,0.89,15055139
-1.35,-0.84,0.01,-0.02,0.89,15059083
-1.35,-0.84,0.01,-0.02,0.89,15063033
-1.35,-0.85,0.01,-0.02,0.89,15066990
-1.35,-0.85,0.01,-0.02,0.89,15070932
-1.35,-0.85,0.01,-0.02,0.89,15074888
-1.35,-0.85,0.01,-0.02,0.89,15078838
-1.35,-0.85,0.01,-0.02,0.89,15082793
-1.35,-0.85,0.01,-0.02,0.89,15086751
-1.35,-0.85,0.01,-0.02,0.89,15090698
-1.35,-0.85,0.01,-0.02,0.89,15094660
-1.35,-0.85,0.01,-0.02,0.89,15098604
-1.35,-0.85,0.01,-0.02,0.89,15102555
-1.35,-0.84,0.01,-0.02,0.89,15106513
-1.35,-0.85,0.01,-0.02,0.89,15110462
-1.35,-0.85,0.01,-0.02,0.89,15114419
-1.35,-0.85,0.01,-0.02,0.89,15118369
-1.35,-0.85,0.01,-0.02,0.89,15122322
-1.35,-0.84,0.01,-0.02,0.89,15126284
-1.35,-0.85,0.01,-0.02,0.89,15130234
-1.35,-0.84,0.01,-0.02,0.89,15134194
-1.35,-0.84,0.01,-0.02,0.89,15138140
-1.35,-0.84,0.01,-0.02,0.89,15142092
-1.35,-0.84,0.01,-0.02,0.89,15146043
-1.35,-0.84,0.01,-0.02,0.89,15149993
-1.35,-0.84,0.01,-0.02,0.89,15153949
-1.35,-0.84,0.01,-0.02,0.89,15157898
-1.35,-0.84,0.01,-0.02,0.89,15161854
-1.35,-0.84,0.01,-0.02,0.89,15165800
-1.35,-0.84,0.01,-0.02,0.89,15169751
-1.35,-0.84,0.01,-0.02,0.89,15173714
-1.35,-0.84,0.01,-0.02,0.89,15177659
-1.35,-0.84,0.01,-0.02,0.89,15181620
-1.35,-0.84,0.01,-0.02,0.89,15185569
-1.35,-0.84,0.01,-0.02,0.89,15189523
-1.35,-0.84,0.01,-0.02,0.89,15193489
-1.35,-0.84,0.01,-0.02,0.89,15197436
-1.35,-0.84,0.01,-0.02,0.89,15201395
-1.35,-0.84,0.01,-0.02,0.89,15205347
-1.35,-0.85,0.01,-0.02,0.89,15209295
-1.35,-0.85,0.01,-0.02,0.89,15213253
-1.35,-0.85,0.01,-0.02,0.89,15217202
-1.35,-0.85,0.01,-0.02,0.89,15221161
-1.35,-0.85,0.01,-0.02,0.89,15225106
-1.35,-0.85,0.01,-0.02,0.89,15229061
-1.35,-0.85,0.01,-0.02,0.89,15233013
-1.35,-0.85,0.01,-0.02,0.89,15236968
-1.35,-0.85,0.01,-0.02,0.89,15240927
-1.35,-0.85,0.01,-0.02,0.89,15244875
-1.35,-0.85,0.01,-0.02,0.89,15248829
-1.35,-0.85,0.01,-0.02,0.89,15252786
-1.35,-0.85,0.01,-0.02,0.89,15256732
-1.35,-0.85,0.01,-0.02,0.89,15260687
-1.35,-0.85,0.01,-0.02,0.89,15264631
-1.35,-0.85,0.01,-0.02,0.89,15268577
-1.35,-0.85,0.01,-0.02,0.89,15272533
-1.35,-0.85,0.01,-0.02,0.89,15276482
-1.35,-0.85,0.01,-0.02,0.89,15280443
-1.35,-0.85,0.01,-0.02,0.89,15284394
-1.35,-0.85,0.01,-0.02,0.89,15288354
-1.35,-0.84,0.01,-0.02,0.89,15292304
-1.35,-0.84,0.01,-0.02,0.89,15296253
-1.35,-0.84,0.01,-0.02,0.89,15300211
-1.35,-0.84,0.01,-0.02,0.89,15304158
-1.35,-0.84,0.01,-0.02,0.89,15308114
-1.35,-0.84,0.01,-0.02,0.89,15312062
-1.35,-0.84,0.01,-0.02,0.89,15316020
-1.35,-0.84,0.01,-0.02,0.89,15319978
-1.35,-0.84,0.01,-0.02,0.89,15323922
-1.35,-0.84,0.01,-0.02,0.89,15327880
-1.35,-0.84,0.01,-0.02,0.89,15331828
-1.35,-0.84,0.01,-0.02,0.90,15335781
-1.35,-0.84,0.01,-0.02,0.89,15339736
-1.35,-0.84,0.01,-0.02,0.89,15343682
-1.35,-0.84,0.01,-0.02,0.89,15347638
-1.35,-0.84,0.01,-0.02,0.89,15351584
-1.35,-0.84,0.01,-0.02,0.89,15355537
-1.35,-0.84,0.01,-0.02,0.89,15359501
-1.35,-0.84,0.01,-0.02,0.89,15363452
-1.35,-0.84,0.01,-0.02,0.89,15367412
-1.35,-0.84,0.01,-0.02,0.89,15371360
-1.35,-0.84,0.01,-0.02,0.89,15375316
-1.36,-0.84,0.01,-0.02,0.89,15379276
-1.35,-0.84,0.01,-0.02,0.89,15383220
-1.36,-0.84,0.01,-0.02,0.89,15387179
-1.36,-0.84,0.01,-0.02,0.89,15391128
-1.36,-0.84,0.01,-0.02,0.89,15395083
-1.36,-0.84,0.01,-0.02,0.89,15399033
-1.36,-0.84,0.01,-0.02,0.89,15402981
-1.36,-0.84,0.01,-0.02,0.89,15406942
-1.36,-0.84,0.01,-0.02,0.89,15410896
-1.36,-0.84,0.01,-0.02,0.89,15414858
-1.36,-0.84,0.01,-0.02,0.89,15418803
-1.36,-0.84,0.01,-0.02,0.90,15422752
-1.36,-0.84,0.01,-0.02,0.89,15426714
-1.36,-0.84,0.01,-0.02,0.89,15430658
-1.36,-0.84,0.01,-0.02,0.89,15434619
-1.36,-0.84,0.01,-0.02,0.89,15438567
-1.36,-0.84,0.01,-0.02,0.89,15442520
-1.36,-0.84,0.01,-0.02,0.89,15446482
-1.36,-0.84,0.01,-0.02,0.89,15450429
-1.36,-0.84,0.01,-0.02,0.89,15454392
-1.36,-0.84,0.01,-0.02,0.89,15458339
-1.36,-0.84,0.01,-0.02,0.89,15462297
-1.36,-0.84,0.01,-0.02,0.89,15466255
-1.36,-0.84,0.01,-0.02,0.89,15470197
-1.36,-0.84,0.01,-0.02,0.89,15474153
-1.36,-0.84,0.01,-0.02,0.89,15478099
-1.36,-0.84,0.01,-0.02,0.89,15482050
-1.36,-0.84,0.01,-0.02,0.89,15486008
-1.36,-0.84,0.01,-0.02,0.89,15489958
-1.36,-0.84,0.01,-0.02,0.89,15493919
-1.36,-0.84,0.01,-0.02,0.89,15497869
-1.36,-0.84,0.01,-0.02,0.89,15501813
-1.36,-0.84,0.01,-0.02,0.89,15505766
-1.36,-0.84,0.01,-0.02,0.89,15509710
-1.36,-0.84,0.01,-0.02,0.89,15513671
-1.36,-0.84,0.01,-0.02,0.89,15517614
-1.36,-0.84,0.01,-0.02,0.89,15521569
-1.36,-0.84,0.01,-0.02,0.89,15525526
-1.36,-0.84,0.01,-0.02,0.89,15529480
-1.36,-0.84,0.01,-0.02,0.89,15533443
-1.36,-0.84,0.01,-0.02,0.89,15537388
-1.36,-0.84,0.01,-0.02,0.89,15541343
-1.36,-0.84,0.01,-0.02,0.89,15545289
-1.36,-0.84,0.01,-0.02,0.89,15549237
-1.36,-0.84,0.01,-0.02,0.89,15553194
-1.36,-0.84,0.01,-0.02,0.89,15557140
-1.36,-0.84,0.01,-0.02,0.89,15561097
-1.36,-0.84,0.01,-0.02,0.89,15565044
-1.36,-0.84,0.01,-0.02,0.89,15568996
-1.36,-0.84,0.01,-0.02,0.89,15572952
-1.36,-0.84,0.01,-0.02,0.89,15576900
-1.36,-0.84,0.01,-0.02,0.89,15580860
-1.36,-0.84,0.01,-0.02,0.89,15584803
-1.36,-0.84,0.01,-0.02,0.89,15588757
-1.36,-0.84,0.01,-0.02,0.89,15592717
-1.36,-0.84,0.01,-0.02,0.89,15596663
-1.36,-0.84,0.01,-0.02,0.89,15600625
-1.36,-0.84,0.01,-0.02,0.89,15604575
-1.36,-0.84,0.01,-0.02,0.89,15608533
-1.36,-0.84,0.01,-0.02,0.89,15612497
-1.36,-0.84,0.01,-0.02,0.89,15616447
-1.36,-0.84,0.01,-0.02,0.89,15620407
-1.36,-0.84,0.01,-0.02,0.89,15624346
-1.36,-0.84,0.01,-0.02,0.89,15628301
-1.36,-0.84,0.01,-0.02,0.89,15632255
-1.36,-0.84,0.01,-0.02,0.89,15636198
-1.36,-0.84,0.01,-0.02,0.89,15640151
-1.36,-0.84,0.01,-0.02,0.89,15644099
-1.36,-0.84,0.01,-0.02,0.89,15648043
-1.36,-0.84,0.01,-0.02,0.89,15651995
-1.36,-0.84,0.01,-0.02,0.89,15655943
-1.36,-0.84,0.01,-0.02,0.90,15659895
-1.36,-0.84,0.01,-0.02,0.89,15663839
-1.36,-0.84,0.01,-0.02,0.89,15667794
-1.36,-0.84,0.01,-0.02,0.89,15671736
-1.36,-0.84,0.01,-0.02,0.89,15675684
-1.36,-0.84,0.01,-0.02,0.89,15679647
-1.36,-0.84,0.01,-0.02,0.89,15683593
-1.36,-0.84,0.01,-0.02,0.89,15687551
-1.36,-0.84,0.01,-0.02,0.89,15691500
-1.36,-0.84,0.01,-0.02,0.89,15695450
-1.36,-0.84,0.01,-0.02,0.89,15699408
-1.36,-0.84,0.01,-0.02,0.89,15703356
-1.36,-0.84,0.01,-0.02,0.89,15707312
-1.36,-0.84,0.01,-0.02,0.89,15711262
-1.36,-0.84,0.01,-0.02,0.89,15715209
-1.36,-0.84,0.01,-0.02,0.89,15719167
-1.36,-0.84,0.01,-0.02,0.89,15723116
-1.36,-0.84,0.01,-0.02,0.89,15727077
-1.36,-0.84,0.01,-0.02,0.89,15731028
-1.36,-0.84,0.01,-0.02,0.89,15734985
-1.36,-0.84,0.01,-0.02,0.89,15738947
-1.36,-0.84,0.01,-0.02,0.89,15742896
-1.36,-0.84,0.01,-0.02,0.89,15746855
-1.36,-0.84,0.01,-0.02,0.89,15750805
-1.36,-0.84,0.01,-0.02,0.89,15754747
-1.36,-0.84,0.01,-0.02,0.89,15758708
-1.36,-0.84,0.01,-0.02,0.89,15762650
-1.36,-0.84,0.01,-0.02,0.89,15766612
-1.36,-0.84,0.01,-0.02,0.89,15770564
-1.36,-0.84,0.01,-0.02,0.89,15774518
-1.36,-0.84,0.01,-0.02,0.89,15778468
-1.36,-0.84,0.01,-0.02,0.89,15782423
-1.36,-0.84,0.01,-0.02,0.89,15786384
-1.36,-0.84,0.01,-0.02,0.89,15790332
-1.36,-0.84,0.01,-0.02,0.89,15794295
-1.36,-0.84,0.01,-0.02,0.89,15798240
-1.35,-0.84,0.01,-0.02,0.89,15802186
-1.35,-0.84,0.01,-0.02,0.89,15806146
-1.35,-0.84,0.01,-0.02,0.89,15810096
-1.35,-0.84,0.01,-0.02,0.89,15814053
-1.35,-0.84,0.01,-0.02,0.89,15817998
-1.35,-0.84,0.01,-0.02,0.89,15821957
-1.35,-0.84,0.01,-0.02,0.89,15825919
-1.35,-0.84,0.01,-0.02,0.89,15829864
-1.35,-0.84,0.01,-0.02,0.89,15833829
-1.35,-0.84,0.01,-0.02,0.89,15837782
-1.35,-0.84,0.01,-0.02,0.89,15841735
-1.35,-0.84,0.01,-0.02,0.89,15845691
-1.35,-0.84,0.01,-0.02,0.89,15849640
-1.34,-0.84,0.01,-0.02,0.89,15853601
-1.34,-0.84,0.01,-0.02,0.89,15857552
-1.34,-0.84,0.01,-0.02,0.89,15861502
-1.34,-0.84,0.01,-0.02,0.89,15865465
-1.34,-0.84,0.01,-0.02,0.89,15869415
-1.34,-0.84,0.01,-0.02,0.89,15873370
-1.34,-0.85,0.01,-0.02,0.89,15877318
-1.34,-0.85,0.01,-0.02,0.89,15881274
-1.34,-0.85,0.01,-0.02,0.89,15885233
-1.34,-0.85,0.01,-0.02,0.89,15889183
-1.34,-0.85,0.01,-0.02,0.89,15893140
-1.34,-0.85,0.01,-0.02,0.89,15897087
-1.34,-0.85,0.01,-0.02,0.89,15901038
-1.34,-0.85,0.01,-0.02,0.89,15904994
-1.34,-0.85,0.01,-0.02,0.89,15908941
-1.34,-0.85,0.01,-0.02,0.89,15912898
-1.34,-0.85,0.01,-0.02,0.89,15916845
-1.34,-0.85,0.01,-0.02,0.89,15920802
-1.34,-0.85,0.01,-0.02,0.89,15924750
-1.34,-0.85,0.01,-0.02,0.89,15928704
-1.34,-0.84,0.01,-0.02,0.89,15932656
-1.34,-0.84,0.01,-0.02,0.89,15936605
-1.34,-0.84,0.01,-0.02,0.89,15940560
-1.34,-0.84,0.01,-0.02,0.89,15944508
-1.34,-0.84,0.01,-0.02,0.89,15948463
-1.34,-0.84,0.01,-0.02,0.89,15952423
-1.34,-0.84,0.01,-0.02,0.89,15956372
-1.34,-0.85,0.01,-0.02,0.89,15960326
-1.34,-0.85,0.01,-0.02,0.89,15964269
-1.34,-0.85,0.01,-0.02,0.89,15968226
-1.34,-0.85,0.01,-0.02,0.89,15972182
-1.34,-0.85,0.01,-0.02,0.89,15976132
-1.34,-0.85,0.01,-0.02,0.89,15980095
-1.34,-0.85,0.01,-0.02,0.89,15984043
-1.34,-0.85,0.01,-0.02,0.89,15987999
-1.34,-0.85,0.01,-0.02,0.89,15991961
-1.34,-0.85,0.01,-0.02,0.89,15995905
-1.34,-0.85,0.01,-0.02,0.89,15999856
-1.34,-0.85,0.01,-0.02,0.89,16003804
-1.34,-0.85,0.01,-0.02,0.89,16007755
-1.34,-0.85,0.01,-0.02,0.89,16011711
-1.34,-0.85,0.01,-0.02,0.89,16015661
-1.34,-0.85,0.01,-0.02,0.89,16019617
-1.34,-0.85,0.01,-0.02,0.89,16023565
-1.34,-0.85,0.01,-0.02,0.89,16027515
-1.34,-0.85,0.01,-0.02,0.89,16031475
-1.34,-0.85,0.01,-0.02,0.89,16035431
-1.34,-0.85,0.01,-0.02,0.89,16039389
-1.34,-0.85,0.01,-0.02,0.89,16043339
-1.34,-0.85,0.01,-0.02,0.89,16047303
-1.34,-0.85,0.01,-0.02,0.89,16051246
-1.34,-0.85,0.01,-0.02,0.89,16055200
-1.34,-0.85,0.01,-0.02,0.89,16059163
-1.34,-0.84,0.01,-0.02,0.89,16063108
-1.34,-0.84,0.01,-0.02,0.89,16067066
-1.34,-0.84,0.01,-0.02,0.89,16071007
-1.34,-0.84,0.01,-0.02,0.89,16074957
-1.34,-0.84,0.01,-0.02,0.89,16078920
-1.34,-0.84,0.01,-0.02,0.89,16082872
-1.33,-0.84,0.01,-0.02,0.89,16086831
-1.33,-0.84,0.01,-0.02,0.89,16090771
-1.33,-0.84,0.01,-0.02,0.89,16094716
-1.33,-0.84,0.01,-0.02,0.89,16098670
-1.33,-0.84,0.01,-0.02,0.89,16102613
-1.33,-0.85,0.01,-0.02,0.89,16106572
-1.33,-0.85,0.01,-0.02,0.89,16110513
-1.34,-0.85,0.01,-0.02,0.89,16114467
-1.34,-0.84,0.01,-0.02,0.89,16118432
-1.34,-0.84,0.01,-0.02,0.89,16122382
-1.34,-0.84,0.01,-0.02,0.89,16126344
-1.34,-0.84,0.01,-0.02,0.89,16130290
-1.34,-0.84,0.01,-0.02,0.89,16134240
-1.34,-0.84,0.01,-0.02,0.89,16138198
-1.34,-0.84,0.01,-0.02,0.89,16142144
-1.34,-0.84,0.01,-0.02,0.89,16146103
-1.34,-0.84,0.01,-0.02,0.89,16150045
-1.34,-0.84,0.01,-0.02,0.89,16153999
-1.34,-0.85,0.01,-0.02,0.89,16157949
-1.34,-0.85,0.01,-0.02,0.89,16161894
-1.34,-0.85,0.01,-0.02,0.89,16165851
-1.34,-0.85,0.01,-0.02,0.89,16169801
-1.34,-0.85,0.01,-0.02,0.89,16173768
-1.34,-0.85,0.01,-0.02,0.89,16177717
-1.34,-0.85,0.01,-0.02,0.89,16181665
-1.34,-0.85,0.01,-0.02,0.89,16185616
-1.34,-0.85,0.01,-0.02,0.89,16189560
-1.34,-0.85,0.01,-0.02,0.89,16193519
-1.34,-0.85,0.01,-0.02,0.89,16197467
-1.34,-0.85,0.01,-0.02,0.89,16201423
-1.34,-0.85,0.01,-0.02,0.89,16205382
-1.34,-0.85,0.01,-0.02,0.89,16209333
-1.34,-0.85,0.01,-0.02,0.89,16213291
-1.34,-0.85,0.01,-0.02,0.89,16217235
-1.34,-0.85,0.01,-0.02,0.89,16221189
-1.34,-0.85,0.01,-0.02,0.89,16225148
-1.34,-0.85,0.01,-0.02,0.89,16229095
-1.34,-0.85,0.01,-0.02,0.89,16233049
-1.34,-0.85,0.01,-0.02,0.89,16236995
-1.34,-0.85,0.01,-0.02,0.89,16240950
-1.34,-0.85,0.01,-0.02,0.89,16244909
-1.34,-0.85,0.01,-0.02,0.89,16248850
-1.34,-0.85,0.01,-0.02,0.89,16252811
-1.34,-0.85,0.01,-0.02,0.89,16256755
-1.34,-0.85,0.01,-0.02,0.89,16260708
-1.34,-0.85,0.01,-0.02,0.89,16264667
-1.34,-0.85,0.01,-0.02,0.89,16268613
-1.34,-0.85,0.01,-0.02,0.90,16272573
-1.34,-0.85,0.01,-0.02,0.89,16276513
-1.34,-0.85,0.01,-0.02,0.89,16280463
-1.34,-0.85,0.01,-0.02,0.89,16284413
-1.34,-0.85,0.01,-0.02,0.89,16288353
-1.34,-0.85,0.01,-0.02,0.89,16292311
-1.34,-0.85,0.01,-0.02,0.89,16296253
-1.34,-0.85,0.01,-0.02,0.89,16300208
-1.34,-0.85,0.01,-0.02,0.89,16304151
-1.34,-0.85,0.01,-0.02,0.89,16308096
-1.34,-0.85,0.01,-0.02,0.89,16312052
-1.34,-0.85,0.01,-0.02,0.89,16316006
-1.34,-0.85,0.01,-0.02,0.89,16319969
-1.34,-0.85,0.01,-0.02,0.89,16323918
-1.34,-0.85,0.01,-0.02,0.89,16327872
-1.34,-0.85,0.01,-0.02,0.89,16331830
-1.34,-0.85,0.01,-0.02,0.89,16335777
-1.34,-0.85,0.01,-0.02,0.89,16339733
-1.34,-0.85,0.01,-0.02,0.89,16343678
-1.34,-0.85,0.01,-0.02,0.89,16347623
-1.34,-0.85,0.01,-0.02,0.89,16351586
-1.34,-0.85,0.01,-0.02,0.89,16355535
-1.34,-0.85,0.01,-0.02,0.89,16359492
-1.34,-0.85,0.01,-0.02,0.89,16363446
-1.34,-0.85,0.01,-0.02,0.89,16367400
-1.34,-0.85,0.01,-0.02,0.89,16371359
-1.34,-0.85,0.01,-0.02,0.89,16375307
-1.34,-0.85,0.01,-0.02,0.89,16379271
-1.34,-0.85,0.01,-0.02,0.89,16383221
-1.34,-0.85,0.01,-0.02,0.89,16387169
-1.34,-0.85,0.01,-0.02,0.89,16391125
-1.34,-0.85,0.01,-0.02,0.89,16395070
-1.34,-0.84,0.01,-0.02,0.89,16399020
-1.34,-0.84,0.01,-0.02,0.89,16402968
-1.34,-0.84,0.01,-0.02,0.89,16406923
-1.34,-0.84,0.01,-0.02,0.89,16410877
-1.34,-0.84,0.01,-0.02,0.89,16414822
-1.34,-0.84,0.01,-0.02,0.89,16418789
-1.34,-0.84,0.01,-0.02,0.89,16422731
-1.34,-0.84,0.01,-0.02,0.89,16426690
-1.34,-0.84,0.01,-0.02,0.89,16430635
-1.34,-0.84,0.01,-0.02,0.89,16434583
-1.34,-0.84,0.01,-0.02,0.89,16438538
-1.34,-0.84,0.01,-0.02,0.89,16442481
-1.34,-0.84,0.01,-0.02,0.89,16446449
-1.34,-0.84,0.01,-0.02,0.89,16450401
-1.34,-0.84,0.01,-0.02,0.89,16454350
-1.34,-0.84,0.01,-0.02,0.89,16458311
-1.34,-0.84,0.01,-0.02,0.89,16462260
-1.34,-0.84,0.01,-0.02,0.89,16466216
-1.34,-0.84,0.01,-0.02,0.89,16470162
-1.34,-0.84,0.01,-0.02,0.89,16474111
-1.34,-0.84,0.01,-0.02,0.89,16478070
-1.34,-0.84,0.01,-0.02,0.89,16482018
-1.34,-0.84,0.01,-0.02,0.89,16485982
-1.34,-0.84,0.01,-0.02,0.89,16489936
-1.34,-0.84,0.01,-0.02,0.89,16493886
-1.34,-0.84,0.01,-0.02,0.89,16497850
-1.34,-0.84,0.01,-0.02,0.89,16501792
-1.34,-0.84,0.01,-0.02,0.89,16505751
-1.34,-0.84,0.01,-0.02,0.89,16509695
-1.34,-0.84,0.01,-0.02,0.89,16513649
-1.34,-0.84,0.01,-0.02,0.89,16517605
-1.34,-0.84,0.01,-0.02,0.89,16521552
-1.34,-0.84,0.01,-0.02,0.89,16525515
-1.34,-0.84,0.01,-0.02,0.89,16529464
-1.34,-0.84,0.01,-0.02,0.89,16533423
-1.34,-0.84,0.01,-0.02,0.89,16537384
-1.34,-0.84,0.01,-0.02,0.89,16541325
-1.34,-0.84,0.01,-0.02,0.89,16545278
-1.34,-0.84,0.01,-0.02,0.89,16549221
-1.34,-0.84,0.01,-0.02,0.89,16553182
-1.34,-0.84,0.01,-0.02,0.89,16557130
-1.34,-0.84,0.01,-0.02,0.89,16561078
-1.34,-0.84,0.01,-0.02,0.89,16565038
-1.34,-0.84,0.01,-0.02,0.89,16568988
-1.34,-0.84,0.01,-0.02,0.89,16572941
-1.34,-0.84,0.01,-0.02,0.89,16576887
-1.34,-0.84,0.01,-0.02,0.89,16580841
-1.34,-0.84,0.01,-0.02,0.89,16584798
-1.34,-0.84,0.01,-0.02,0.89,16588743
-1.34,-0.84,0.01,-0.02,0.89,16592705
-1.34,-0.84,0.01,-0.02,0.89,16596652
-1.34,-0.84,0.01,-0.02,0.89,16600605
-1.34,-0.84,0.01,-0.02,0.89,16604560
-1.34,-0.84,0.01,-0.02,0.89,16608509
-1.34,-0.84,0.01,-0.02,0.89,16612473
-1.34,-0.84,0.01,-0.02,0.89,16616425
-1.34,-0.84,0.01,-0.02,0.89,16620378
-1.34,-0.84,0.01,-0.02,0.89,16624332
-1.34,-0.84,0.01,-0.02,0.89,16628274
-1.34,-0.84,0.01,-0.02,0.89,16632232
-1.34,-0.84,0.01,-0.02,0.89,16636180
-1.34,-0.84,0.01,-0.02,0.89,16640132
-1.34,-0.84,0.01,-0.02,0.89,16644090
-1.34,-0.84,0.01,-0.02,0.89,16648039
-1.34,-0.84,0.01,-0.02,0.89,16651998
-1.34,-0.84,0.01,-0.02,0.89,16655944
-1.34,-0.84,0.01,-0.02,0.89,16659899
-1.34,-0.84,0.01,-0.02,0.89,16663854
-1.34,-0.84,0.01,-0.02,0.89,16667797
-1.34,-0.84,0.01,-0.02,0.89,16671756
-1.34,-0.84,0.01,-0.02,0.89,16675702
-1.34,-0.84,0.01,-0.02,0.89,16679658
-1.34,-0.84,0.01,-0.02,0.89,16683605
-1.34,-0.84,0.01,-0.02,0.89,16687553
-1.34,-0.84,0.01,-0.02,0.89,16691516
-1.34,-0.85,0.01,-0.02,0.89,16695464
-1.34,-0.85,0.01,-0.02,0.90,16699427
-1.34,-0.85,0.01,-0.02,0.90,16703370
-1.34,-0.85,0.01,-0.02,0.89,16707326
-1.34,-0.85,0.01,-0.02,0.90,16711276
-1.34,-0.85,0.01,-0.02,0.90,16715225
-1.34,-0.85,0.02,-0.02,0.90,16719176
-1.34,-0.85,0.01,-0.02,0.90,16723119
-1.34,-0.85,0.01,-0.02,0.89,16727067
-1.34,-0.85,0.01,-0.02,0.89,16731026
-1.34,-0.85,0.01,-0.02,0.89,16734976
-1.34,-0.85,0.01,-0.02,0.89,16738939
-1.34,-0.85,0.01,-0.02,0.89,16742887
-1.34,-0.85,0.01,-0.02,0.89,16746836
-1.34,-0.85,0.01,-0.02,0.89,16750792
-1.34,-0.85,0.01,-0.02,0.89,16754743
-1.34,-0.85,0.01,-0.02,0.89,16758695
-1.34,-0.85,0.01,-0.02,0.89,16762645
-1.34,-0.85,0.01,-0.02,0.89,16766602
-1.34,-0.85,0.01,-0.02,0.89,16770564
-1.34,-0.85,0.01,-0.02,0.89,16774512
-1.34,-0.85,0.01,-0.02,0.89,16778472
-1.34,-0.85,0.01,-0.02,0.89,16782423
-1.34,-0.85,0.01,-0.02,0.89,16786367
-1.34,-0.85,0.01,-0.02,0.89,16790322
-1.34,-0.85,0.01,-0.02,0.89,16794268
-1.34,-0.85,0.01,-0.02,0.89,16798225
-1.34,-0.85,0.01,-0.02,0.89,16802172
-1.34,-0.85,0.01,-0.02,0.89,16806130
-1.34,-0.85,0.01,-0.02,0.89,16810073
-1.34,-0.85,0.01,-0.02,0.89,16814023
-1.34,-0.85,0.01,-0.02,0.89,16817980
-1.33,-0.85,0.01,-0.02,0.89,16821922
-1.33,-0.85,0.01,-0.02,0.89,16825878
-1.33,-0.85,0.01,-0.02,0.89,16829823
-1.33,-0.85,0.01,-0.02,0.89,16833772
-1.33,-0.85,0.01,-0.02,0.89,16837736
-1.33,-0.85,0.01,-0.02,0.89,16841680
-1.33,-0.85,0.01,-0.02,0.89,16845632
-1.33,-0.85,0.01,-0.02,0.89,16849579
-1.33,-0.85,0.01,-0.02,0.89,16853534
-1.34,-0.85,0.01,-0.02,0.89,16857494
-1.34,-0.85,0.01,-0.02,0.89,16861441
-1.34,-0.85,0.01,-0.02,0.89,16865407
-1.34,-0.85,0.01,-0.02,0.89,16869342
-1.34,-0.85,0.01,-0.02,0.89,16873288
-1.34,-0.85,0.01,-0.02,0.89,16877243
-1.34,-0.85,0.01,-0.02,0.89,16881193
-1.33,-0.85,0.01,-0.02,0.89,16885157
-1.33,-0.85,0.01,-0.02,0.89,16889102
-1.33,-0.85,0.01,-0.02,0.89,16893056
-1.33,-0.85,0.01,-0.02,0.89,16897010
-1.33,-0.85,0.01,-0.02,0.89,16900957
-1.33,-0.85,0.01,-0.02,0.89,16904914
-1.33,-0.85,0.01,-0.02,0.89,16908855
-1.33,-0.85,0.01,-0.02,0.89,16912813
-1.33,-0.85,0.01,-0.02,0.89,16916769
-1.33,-0.85,0.01,-0.02,0.89,16920710
-1.33,-0.85,0.01,-0.02,0.89,16924665
-1.33,-0.85,0.01,-0.02,0.89,16928607
-1.33,-0.85,0.01,-0.02,0.89,16932565
-1.33,-0.85,0.01,-0.02,0.89,16936509
-1.33,-0.85,0.01,-0.02,0.89,16940458
-1.33,-0.85,0.01,-0.02,0.89,16944427
-1.33,-0.85,0.01,-0.02,0.89,16948376
-1.33,-0.85,0.01,-0.02,0.89,16952333
-1.33,-0.85,0.01,-0.02,0.89,16956277
-1.33,-0.85,0.01,-0.02,0.89,16960228
-1.33,-0.85,0.01,-0.02,0.90,16964180
-1.33,-0.85,0.01,-0.02,0.89,16968123
-1.33,-0.84,0.01,-0.02,0.90,16972075
-1.33,-0.84,0.01,-0.02,0.89,16976022
-1.33,-0.84,0.01,-0.02,0.89,16979975
-1.33,-0.84,0.01,-0.02,0.89,16983929
-1.33,-0.84,0.01,-0.02,0.89,16987883
-1.33,-0.84,0.01,-0.02,0.89,16991846
-1.33,-0.85,0.01,-0.02,0.89,16995790
-1.33,-0.85,0.01,-0.02,0.89,16999739
-1.33,-0.85,0.01,-0.02,0.89,17003698
-1.33,-0.85,0.01,-0.02,0.89,17007647
-1.33,-0.85,0.01,-0.02,0.89,17011605
-1.33,-0.85,0.01,-0.02,0.89,17015548
-1.33,-0.85,0.01,-0.02,0.89,17019506
-1.33,-0.85,0.01,-0.02,0.89,17023466
-1.33,-0.85,0.01,-0.02,0.89,17027414
-1.33,-0.85,0.01,-0.02,0.89,17031374
-1.33,-0.85,0.01,-0.02,0.89,17035327
-1.33,-0.85,0.01,-0.02,0.89,17039279
-1.33,-0.85,0.01,-0.02,0.89,17043236
-1.33,-0.85,0.01,-0.02,0.89,17047186
-1.33,-0.85,0.01,-0.02,0.89,17051144
-1.33,-0.85,0.01,-0.02,0.89,17055090
-1.33,-0.85,0.01,-0.02,0.89,17059050
-1.33,-0.85,0.01,-0.02,0.89,17062990
-1.33,-0.85,0.01,-0.02,0.89,17066939
-1.33,-0.85,0.01,-0.02,0.89,17070899
-1.33,-0.85,0.01,-0.02,0.89,17074846
-1.33,-0.85,0.01,-0.02,0.89,17078806
-1.33,-0.85,0.01,-0.02,0.89,17082752
-1.33,-0.85,0.01,-0.02,0.89,17086702
-1.33,-0.85,0.01,-0.02,0.89,17090665
-1.33,-0.85,0.01,-0.02,0.89,17094609
-1.33,-0.85,0.01,-0.02,0.89,17098569
-1.33,-0.85,0.01,-0.02,0.89,17102512
-1.33,-0.85,0.01,-0.02,0.89,17106467
-1.33,-0.85,0.01,-0.02,0.89,17110427
-1.33,-0.85,0.01,-0.02,0.89,17114374
-1.33,-0.85,0.01,-0.02,0.89,17118335
-1.33,-0.85,0.01,-0.02,0.89,17122282
-1.33,-0.85,0.01,-0.02,0.89,17126233
-1.33,-0.85,0.01,-0.02,0.89,17130188
-1.33,-0.85,0.01,-0.02,0.89,17134137
-1.33,-0.85,0.01,-0.02,0.89,17138096
-1.33,-0.85,0.01,-0.02,0.89,17142047
-1.33,-0.85,0.01,-0.02,0.89,17146006
-1.33,-0.85,0.01,-0.02,0.89,17149966
-1.33,-0.85,0.01,-0.02,0.89,17153911
-1.33,-0.85,0.01,-0.02,0.89,17157869
-1.33,-0.85,0.01,-0.02,0.89,17161813
-1.33,-0.85,0.01,-0.02,0.89,17165766
-1.33,-0.85,0.01,-0.02,0.89,17169718
-1.33,-0.85,0.01,-0.02,0.89,17173659
-1.33,-0.85,0.01,-0.02,0.89,17177618
-1.33,-0.85,0.01,-0.02,0.89,17181565
-1.33,-0.85,0.01,-0.02,0.89,17185522
-1.33,-0.85,0.01,-0.02,0.89,17189472
-1.33,-0.85,0.01,-0.02,0.89,17193425
-1.33,-0.85,0.01,-0.02,0.89,17197383
-1.33,-0.85,0.01,-0.02,0.89,17201331
-1.33,-0.85,0.01,-0.02,0.89,17205287
-1.33,-0.85,0.01,-0.02,0.89,17209233
-1.33,-0.85,0.01,-0.02,0.89,17213179
-1.33,-0.85,0.01,-0.02,0.89,17217135
-1.33,-0.85,0.01,-0.02,0.89,17221082
-1.33,-0.85,0.01,-0.02,0.89,17225041
-1.33,-0.85,0.01,-0.02,0.89,17228991
-1.33,-0.85,0.01,-0.02,0.89,17232944
-1.33,-0.85,0.01,-0.02,0.89,17236898
-1.33,-0.85,0.01,-0.02,0.89,17240842
-1.33,-0.85,0.01,-0.02,0.89,17244801
-1.33,-0.85,0.01,-0.02,0.89,17248738
-1.33,-0.85,0.01,-0.02,0.89,17252693
-1.33,-0.85,0.01,-0.02,0.89,17256651
-1.33,-0.85,0.01,-0.02,0.89,17260594
-1.33,-0.85,0.01,-0.02,0.89,17264554
-1.33,-0.85,0.01,-0.02,0.89,17268502
-1.33,-0.85,0.01,-0.02,0.89,17272454
-1.33,-0.85,0.01,-0.02,0.90,17276411
-1.33,-0.85,0.01,-0.02,0.89,17280358
-1.33,-0.85,0.01,-0.02,0.89,17284317
-1.33,-0.85,0.01,-0.02,0.89,17288267
-1.33,-0.85,0.01,-0.02,0.89,17292216
-1.33,-0.85,0.01,-0.02,0.89,17296166
-1.33,-0.84,0.01,-0.02,0.89,17300109
-1.33,-0.84,0.01,-0.02,0.89,17304068
-1.33,-0.84,0.01,-0.02,0.89,17308019
-1.33,-0.84,0.01,-0.02,0.89,17311984
-1.33,-0.85,0.01,-0.02,0.89,17315936
-1.33,-0.85,0.01,-0.02,0.89,17319885
-1.33,-0.85,0.01,-0.02,0.89,17323846
-1.33,-0.85,0.01,-0.02,0.89,17327788
-1.33,-0.85,0.01,-0.02,0.89,17331750
-1.33,-0.84,0.01,-0.02,0.89,17335693
-1.33,-0.84,0.01,-0.02,0.89,17339642
-1.33,-0.84,0.01,-0.02,0.89,17343600
-1.33,-0.84,0.01,-0.02,0.89,17347544
-1.33,-0.84,0.01,-0.02,0.89,17351502
-1.33,-0.84,0.01,-0.02,0.89,17355451
-1.33,-0.84,0.01,-0.02,0.89,17359405
-1.33,-0.84,0.01,-0.02,0.89,17363358
-1.33,-0.84,0.01,-0.02,0.89,17367306
-1.33,-0.84,0.01,-0.02,0.89,17371265
-1.33,-0.84,0.01,-0.02,0.89,17375213
-1.33,-0.84,0.01,-0.02,0.89,17379170
-1.33,-0.84,0.01,-0.02,0.89,17383128
-1.33,-0.84,0.01,-0.02,0.90,17387071
-1.33,-0.84,0.01,-0.02,0.90,17391028
-1.33,-0.84,0.01,-0.02,0.90,17394969
-1.33,-0.84,0.01,-0.02,0.90,17398923
-1.33,-0.84,0.01,-0.02,0.89,17402885
-1.33,-0.84,0.01,-0.02,0.89,17406833
-1.33,-0.84,0.01,-0.02,0.89,17410792
-1.33,-0.84,0.01,-0.02,0.89,17414742
-1.33,-0.84,0.01,-0.02,0.89,17418695
-1.33,-0.84,0.01,-0.02,0.89,17422650
-1.33,-0.84,0.01,-0.02,0.89,17426597
-1.33,-0.84,0.01,-0.02,0.89,17430550
-1.33,-0.84,0.01,-0.02,0.89,17434501
-1.33,-0.84,0.01,-0.02,0.90,17438463
-1.33,-0.84,0.01,-0.02,0.89,17442406
-1.33,-0.84,0.01,-0.02,0.89,17446353
-1.33,-0.84,0.01,-0.02,0.89,17450314
-1.33,-0.84,0.01,-0.02,0.89,17454265
-1.33,-0.84,0.01,-0.02,0.89,17458218
-1.33,-0.84,0.01,-0.02,0.89,17462166
-1.33,-0.84,0.01,-0.02,0.89,17466123
-1.33,-0.84,0.01,-0.02,0.89,17470086
-1.33,-0.84,0.01,-0.02,0.89,17474031
-1.33,-0.84,0.01,-0.02,0.89,17477985
-1.33,-0.84,0.01,-0.02,0.89,17481933
-1.33,-0.84,0.01,-0.02,0.89,17485882
-1.33,-0.84,0.01,-0.02,0.89,17489844
-1.33,-0.84,0.01,-0.02,0.89,17493785
-1.33,-0.84,0.01,-0.02,0.89,17497737
-1.33,-0.84,0.01,-0.02,0.89,17501677
-1.33,-0.84,0.01,-0.02,0.89,17505629
-1.33,-0.84,0.01,-0.02,0.89,17509593
-1.33,-0.84,0.01,-0.02,0.89,17513538
-1.33,-0.84,0.01,-0.02,0.89,17517498
-1.33,-0.84,0.01,-0.02,0.89,17521450
-1.33,-0.84,0.01,-0.02,0.89,17525405
-1.33,-0.84,0.01,-0.02,0.89,17529364
-1.33,-0.84,0.01,-0.02,0.89,17533311
-1.33,-0.84,0.01,-0.02,0.89,17537263
-1.33,-0.84,0.01,-0.02,0.89,17541213
-1.33,-0.84,0.01,-0.02,0.89,17545166
-1.33,-0.84,0.01,-0.02,0.89,17549128
-1.33,-0.84,0.01,-0.02,0.89,17553072
-1.33,-0.84,0.01,-0.02,0.89,17557034
-1.33,-0.84,0.01,-0.02,0.89,17560979
-1.33,-0.84,0.01,-0.02,0.89,17564937
-1.33,-0.84,0.01,-0.02,0.89,17568888
-1.33,-0.84,0.01,-0.02,0.89,17572833
-1.33,-0.84,0.01,-0.02,0.89,17576794
-1.33,-0.84,0.01,-0.02,0.89,17580746
-1.33,-0.84,0.01,-0.02,0.89,17584702
-1.33,-0.84,0.01,-0.02,0.89,17588645
-1.33,-0.84,0.01,-0.02,0.89,17592603
-1.33,-0.84,0.01,-0.02,0.89,17596564
-1.33,-0.84,0.01,-0.02,0.89,17600515
-1.33,-0.84,0.01,-0.02,0.89,17604474
-1.33,-0.84,0.01,-0.02,0.89,17608425
-1.33,-0.84,0.01,-0.02,0.89,17612382
-1.33,-0.84,0.01,-0.02,0.89,17616339
-1.33,-0.84,0.01,-0.02,0.89,17620287
-1.33,-0.84,0.01,-0.02,0.89,17624243
-1.33,-0.84,0.01,-0.02,0.89,17628189
-1.33,-0.84,0.01,-0.02,0.89,17632139
-1.33,-0.84,0.01,-0.02,0.89,17636095
-1.33,-0.84,0.01,-0.02,0.89,17640040
-1.33,-0.84,0.01,-0.02,0.89,17643996
-1.33,-0.84,0.01,-0.02,0.89,17647944
-1.33,-0.84,0.01,-0.02,0.89,17651899
-1.33,-0.84,0.01,-0.02,0.89,17655856
-1.33,-0.84,0.01,-0.02,0.89,17659802
-1.33,-0.84,0.01,-0.02,0.89,17663761
-1.33,-0.84,0.01,-0.02,0.89,17667704
-1.33,-0.84,0.01,-0.02,0.89,17671660
-1.33,-0.84,0.01,-0.02,0.89,17675611
-1.33,-0.84,0.01,-0.02,0.89,17679554
-1.33,-0.84,0.01,-0.02,0.89,17683513
-1.33,-0.84,0.01,-0.02,0.89,17687464
-1.33,-0.84,0.01,-0.02,0.89,17691423
-1.33,-0.84,0.01,-0.02,0.89,17695374
-1.33,-0.84,0.01,-0.02,0.89,17699326
-1.33,-0.84,0.01,-0.02,0.89,17703291
-1.33,-0.84,0.01,-0.02,0.89,17707241
-1.33,-0.84,0.01,-0.02,0.89,17711204
-1.33,-0.84,0.01,-0.02,0.89,17715150
-1.33,-0.84,0.01,-0.02,0.89,17719106
-1.33,-0.84,0.01,-0.02,0.89,17723066
-1.33,-0.84,0.01,-0.02,0.89,17727019
-1.33,-0.84,0.01,-0.02,0.89,17730973
-1.33,-0.84,0.01,-0.02,0.89,17734924
-1.33,-0.84,0.01,-0.02,0.89,17738875
-1.33,-0.84,0.01,-0.02,0.89,17742832
-1.33,-0.84,0.01,-0.02,0.89,17746782
-1.33,-0.84,0.01,-0.02,0.89,17750741
-1.33,-0.84,0.01,-0.02,0.89,17754688
-1.33,-0.84,0.01,-0.02,0.89,17758638
-1.33,-0.84,0.01,-0.02,0.89,17762601
-1.33,-0.85,0.01,-0.02,0.89,17766544
-1.33,-0.85,0.01,-0.02,0.89,17770502
-1.33,-0.85,0.01,-0.02,0.89,17774448
-1.33,-0.85,0.01,-0.02,0.89,17778406
-1.33,-0.85,0.01,-0.02,0.89,17782364
-1.33,-0.85,0.01,-0.02,0.89,17786309
-1.33,-0.85,0.01,-0.02,0.89,17790265
-1.33,-0.85,0.01,-0.02,0.89,17794209
-1.33,-0.85,0.01,-0.02,0.89,17798162
-1.33,-0.85,0.01,-0.02,0.89,17802117
-1.33,-0.85,0.01,-0.02,0.89,17806068
-1.33,-0.85,0.01,-0.02,0.89,17810025
-1.34,-0.85,0.01,-0.02,0.89,17813972
-1.34,-0.85,0.01,-0.02,0.89,17817934
-1.34,-0.85,0.01,-0.02,0.89,17821883
-1.34,-0.85,0.01,-0.02,0.89,17825831
-1.34,-0.85,0.01,-0.02,0.89,17829784
-1.34,-0.85,0.01,-0.02,0.89,17833735
-1.34,-0.85,0.01,-0.02,0.89,17837695
-1.34,-0.85,0.01,-0.02,0.89,17841641
-1.34,-0.85,0.01,-0.02,0.89,17845592
-1.34,-0.85,0.01,-0.02,0.89,17849550
-1.34,-0.85,0.01,-0.02,0.89,17853499
-1.34,-0.85,0.01,-0.02,0.89,17857461
-1.34,-0.85,0.01,-0.02,0.89,17861411
-1.34,-0.85,0.01,-0.02,0.89,17865362
-1.34,-0.85,0.01,-0.02,0.89,17869318
-1.34,-0.85,0.01,-0.02,0.89,17873267
-1.34,-0.85,0.01,-0.02,0.89,17877226
-1.34,-0.85,0.01,-0.02,0.89,17881165
-1.34,-0.85,0.01,-0.02,0.89,17885117
-1.34,-0.85,0.01,-0.02,0.89,17889077
-1.34,-0.85,0.01,-0.02,0.89,17893028
-1.34,-0.85,0.01,-0.02,0.89,17896991
-1.34,-0.85,0.01,-0.02,0.89,17900941
-1.34,-0.85,0.01,-0.02,0.89,17904897
-1.33,-0.85,0.01,-0.02,0.89,17908856
-1.33,-0.85,0.01,-0.02,0.89,17912799
-1.33,-0.85,0.01,-0.02,0.89,17916758
-1.33,-0.85,0.01,-0.02,0.89,17920700
-1.33,-0.85,0.01,-0.02,0.89,17924655
-1.33,-0.85,0.01,-0.02,0.89,17928608
-1.33,-0.85,0.01,-0.02,0.89,17932555
-1.33,-0.85,0.01,-0.02,0.89,17936518
-1.33,-0.85,0.01,-0.02,0.89,17940466
-1.33,-0.85,0.01,-0.02,0.89,17944422
-1.33,-0.85,0.01,-0.02,0.89,17948366
-1.33,-0.85,0.01,-0.02,0.89,17952312
-1.33,-0.85,0.01,-0.02,0.89,17956274
-1.33,-0.85,0.01,-0.02,0.89,17960223
-1.33,-0.85,0.01,-0.02,0.89,17964180
-1.33,-0.85,0.01,-0.02,0.89,17968131
-1.33,-0.85,0.01,-0.02,0.89,17972077
-1.33,-0.85,0.01,-0.02,0.89,17976033
-1.33,-0.85,0.01,-0.02,0.89,17979980
-1.33,-0.85,0.01,-0.02,0.89,17983937
-1.33,-0.85,0.01,-0.02,0.89,17987885
-1.33,-0.85,0.01,-0.02,0.89,17991839
-1.33,-0.85,0.01,-0.02,0.89,17995796
-1.33,-0.85,0.01,-0.02,0.89,17999736
-1.33,-0.85,0.01,-0.02,0.89,18003695
-1.33,-0.84,0.01,-0.02,0.89,18007640
-1.33,-0.84,0.01,-0.02,0.89,18011594
-1.33,-0.84,0.01,-0.02,0.89,18015551
-1.33,-0.85,0.01,-0.02,0.89,18019502
-1.33,-0.85,0.01,-0.02,0.89,18023464
-1.33,-0.85,0.01,-0.02,0.89,18027411
-1.33,-0.85,0.01,-0.02,0.89,18031363
-1.33,-0.84,0.01,-0.02,0.89,18035316
-1.33,-0.84,0.01,-0.02,0.89,18039264
-1.33,-0.84,0.01,-0.02,0.89,18043223
-1.33,-0.84,0.01,-0.02,0.89,18047171
-1.33,-0.84,0.01,-0.02,0.89,18051128
-1.33,-0.84,0.01,-0.02,0.89,18055080
-1.33,-0.84,0.01,-0.02,0.89,18059031
-1.33,-0.84,0.01,-0.02,0.89,18062987
-1.33,-0.84,0.01,-0.02,0.89,18066938
-1.33,-0.84,0.01,-0.02,0.89,18070899
-1.33,-0.84,0.01,-0.02,0.89,18074849
-1.33,-0.85,0.01,-0.02,0.89,18078798
-1.33,-0.85,0.01,-0.02,0.89,18082754
-1.33,-0.85,0.01,-0.02,0.90,18086698
-1.33,-0.85,0.01,-0.02,0.90,18090651
-1.33,-0.85,0.01,-0.02,0.89,18094600
-1.33,-0.85,0.01,-0.02,0.89,18098554
-1.33,-0.85,0.01,-0.02,0.89,18102520
-1.33,-0.85,0.01,-0.02,0.89,18106474
-1.33,-0.85,0.01,-0.02,0.90,18110438
-1.33,-0.85,0.01,-0.02,0.89,18114375
-1.33,-0.85,0.01,-0.02,0.89,18118323
-1.33,-0.85,0.01,-0.02,0.89,18122283
-1.33,-0.85,0.01,-0.02,0.89,18126229
-1.33,-0.85,0.01,-0.02,0.89,18130188
-1.33,-0.85,0.01,-0.02,0.89,18134132
-1.33,-0.85,0.01,-0.02,0.89,18138087
-1.33,-0.85,0.01,-0.02,0.89,18142043
-1.33,-0.85,0.01,-0.02,0.89,18145986
-1.33,-0.85,0.01,-0.02,0.89,18149940
-1.33,-0.85,0.01,-0.02,0.89,18153883
-1.33,-0.85,0.01,-0.02,0.89,18157836
-1.33,-0.85,0.01,-0.02,0.89,18161793
-1.33,-0.85,0.01,-0.02,0.89,18165738
-1.33,-0.85,0.01,-0.02,0.89,18169692
-1.33,-0.85,0.01,-0.02,0.90,18173633
-1.33,-0.85,0.01,-0.02,0.90,18177582
-1.33,-0.85,0.01,-0.02,0.90,18181535
-1.33,-0.85,0.01,-0.02,0.90,18185482
-1.33,-0.85,0.01,-0.02,0.89,18189446
-1.33,-0.85,0.01,-0.02,0.89,18193391
-1.33,-0.85,0.01,-0.02,0.89,18197348
-1.33,-0.85,0.01,-0.02,0.90,18201288
-1.33,-0.85,0.01,-0.02,0.89,18205240
-1.33,-0.85,0.01,-0.02,0.89,18209200
-1.33,-0.85,0.01,-0.02,0.89,18213143
-1.33,-0.85,0.01,-0.02,0.89,18217107
-1.33,-0.85,0.01,-0.02,0.89,18221052
-1.33,-0.85,0.01,-0.02,0.89,18225006
-1.33,-0.85,0.01,-0.02,0.89,18228964
-1.33,-0.85,0.01,-0.02,0.89,18232908
-1.33,-0.85,0.01,-0.02,0.89,18236861
-1.33,-0.85,0.01,-0.02,0.89,18240807
-1.33,-0.85,0.01,-0.02,0.89,18244760
-1.33,-0.85,0.01,-0.02,0.89,18248722
-1.33,-0.85,0.01,-0.02,0.89,18252666
-1.33,-0.85,0.01,-0.02,0.89,18256622
-1.33,-0.85,0.01,-0.02,0.89,18260572
-1.33,-0.85,0.01,-0.02,0.89,18264530
-1.33,-0.85,0.02,-0.02,0.89,18268495
-1.33,-0.85,0.01,-0.02,0.89,18272442
-1.33,-0.85,0.01,-0.02,0.89,18276401
-1.33,-0.85,0.01,-0.02,0.89,18280351
-1.33,-0.85,0.01,-0.02,0.89,18284305
-1.33,-0.85,0.01,-0.02,0.89,18288267
-1.33,-0.85,0.01,-0.02,0.89,18292214
-1.33,-0.85,0.01,-0.02,0.89,18296173
-1.33,-0.85,0.01,-0.02,0.89,18300114
-1.33,-0.85,0.01,-0.02,0.89,18304063
-1.33,-0.85,0.01,-0.02,0.89,18308015
-1.33,-0.85,0.01,-0.02,0.89,18311956
-1.33,-0.85,0.01,-0.02,0.89,18315915
-1.33,-0.85,0.01,-0.02,0.89,18319859
-1.33,-0.85,0.01,-0.02,0.90,18323816
-1.33,-0.85,0.01,-0.02,0.89,18327762
-1.33,-0.85,0.01,-0.02,0.89,18331710
-1.33,-0.85,0.01,-0.02,0.89,18335669
-1.33,-0.85,0.01,-0.02,0.89,18339617
-1.33,-0.85,0.01,-0.02,0.89,18343580
-1.33,-0.85,0.01,-0.02,0.89,18347528
-1.33,-0.85,0.01,-0.02,0.89,18351482
-1.33,-0.85,0.01,-0.02,0.89,18355437
-1.33,-0.85,0.01,-0.02,0.89,18359379
-1.33,-0.85,0.01,-0.02,0.89,18363334
-1.33,-0.85,0.01,-0.02,0.89,18367282
-1.33,-0.85,0.01,-0.02,0.89,18371235
-1.33,-0.85,0.01,-0.02,0.89,18375189
-1.33,-0.85,0.01,-0.02,0.89,18379132
-1.33,-0.85,0.01,-0.02,0.89,18383089
-1.33,-0.85,0.01,-0.02,0.89,18387036
-1.33,-0.85,0.01,-0.02,0.89,18390987
-1.33,-0.85,0.01,-0.02,0.89,18394949
-1.33,-0.85,0.01,-0.02,0.89,18398900
-1.33,-0.85,0.01,-0.02,0.89,18402857
-1.33,-0.85,0.01,-0.02,0.89,18406799
-1.33,-0.85,0.01,-0.02,0.89,18410751
-1.33,-0.85,0.01,-0.02,0.89,18414709
-1.33,-0.85,0.01,-0.02,0.89,18418661
-1.33,-0.85,0.01,-0.02,0.89,18422619
-1.33,-0.85,0.01,-0.02,0.89,18426570
-1.33,-0.85,0.01,-0.02,0.89,18430520
-1.33,-0.85,0.01,-0.02,0.89,18434473
-1.33,-0.85,0.01,-0.02,0.89,18438421
-1.33,-0.85,0.01,-0.02,0.89,18442377
-1.33,-0.85,0.01,-0.02,0.89,18446323
-1.33,-0.85,0.01,-0.02,0.89,18450283
-1.33,-0.85,0.01,-0.02,0.89,18454231
-1.33,-0.85,0.01,-0.02,0.89,18458180
-1.33,-0.85,0.01,-0.02,0.89,18462141
-1.33,-0.85,0.01,-0.02,0.89,18466085
-1.33,-0.85,0.01,-0.02,0.89,18470045
-1.33,-0.85,0.01,-0.02,0.89,18473993
-1.33,-0.85,0.01,-0.02,0.89,18477947
-1.33,-0.85,0.01,-0.02,0.89,18481904
-1.33,-0.85,0.01,-0.02,0.89,18485851
-1.33,-0.85,0.01,-0.02,0.89,18489808
-1.34,-0.85,0.01,-0.02,0.89,18493756
-1.34,-0.85,0.01,-0.02,0.89,18497707
-1.34,-0.85,0.01,-0.02,0.89,18501668
-1.34,-0.85,0.01,-0.02,0.89,18505610
-1.34,-0.85,0.01,-0.02,0.89,18509574
-1.34,-0.85,0.01,-0.02,0.89,18513520
-1.34,-0.85,0.01,-0.02,0.89,18517470
-1.34,-0.85,0.01,-0.02,0.89,18521433
-1.34,-0.85,0.01,-0.02,0.89,18525378
-1.34,-0.85,0.01,-0.02,0.89,18529334
-1.34,-0.85,0.01,-0.02,0.89,18533279
-1.34,-0.85,0.01,-0.02,0.89,18537233
-1.34,-0.85,0.01,-0.02,0.89,18541192
-1.34,-0.85,0.01,-0.02,0.89,18545146
-1.34,-0.85,0.01,-0.02,0.89,18549113
-1.34,-0.85,0.01,-0.02,0.89,18553062
-1.34,-0.85,0.01,-0.02,0.89,18557017
-1.34,-0.85,0.01,-0.02,0.89,18560971
-1.34,-0.85,0.01,-0.02,0.89,18564924
-1.34,-0.85,0.01,-0.02,0.89,18568883
-1.34,-0.85,0.01,-0.02,0.89,18572826
-1.34,-0.85,0.01,-0.02,0.89,18576783
-1.34,-0.85,0.01,-0.02,0.89,18580728
-1.34,-0.85,0.01,-0.02,0.89,18584675
-1.34,-0.85,0.01,-0.02,0.89,18588637
-1.34,-0.85,0.01,-0.02,0.89,18592583
-1.34,-0.85,0.01,-0.02,0.89,18596546
-1.34,-0.85,0.01,-0.02,0.90,18600490
-1.34,-0.85,0.01,-0.02,0.90,18604446
-1.33,-0.85,0.01,-0.02,0.90,18608403
-1.33,-0.85,0.01,-0.02,0.90,18612348
-1.33,-0.85,0.01,-0.02,0.90,18616304
-1.33,-0.85,0.01,-0.02,0.90,18620246
-1.33,-0.85,0.01,-0.02,0.90,18624192
-1.33,-0.85,0.01,-0.02,0.89,18628153
-1.33,-0.85,0.01,-0.02,0.89,18632100
-1.33,-0.85,0.01,-0.02,0.89,18636063
-1.33,-0.85,0.01,-0.02,0.89,18640010
-1.33,-0.85,0.01,-0.02,0.89,18643967
-1.33,-0.85,0.01,-0.02,0.89,18647923
-1.33,-0.85,0.01,-0.02,0.89,18651866
-1.33,-0.85,0.01,-0.02,0.89,18655820
-1.33,-0.85,0.01,-0.02,0.89,18659764
-1.33,-0.85,0.01,-0.02,0.89,18663712
-1.33,-0.85,0.01,-0.02,0.89,18667666
-1.33,-0.85,0.01,-0.02,0.89,18671615
-1.33,-0.85,0.01,-0.02,0.89,18675575
-1.33,-0.85,0.01,-0.02,0.89,18679521
-1.33,-0.85,0.01,-0.02,0.89,18683476
-1.33,-0.85,0.01,-0.02,0.89,18687434
-1.33,-0.85,0.01,-0.02,0.89,18691385
-1.33,-0.85,0.01,-0.02,0.89,18695340
-1.33,-0.85,0.01,-0.02,0.89,18699289
-1.33,-0.85,0.01,-0.02,0.89,18703247
-1.34,-0.85,0.01,-0.02,0.89,18707197
-1.34,-0.85,0.01,-0.02,0.89,18711148
-1.34,-0.85,0.01,-0.02,0.89,18715106
-1.34,-0.85,0.01,-0.02,0.89,18719054
-1.34,-0.86,0.01,-0.02,0.89,18723014
-1.34,-0.86,0.01,-0.02,0.89,18726962
-1.34,-0.86,0.01,-0.02,0.89,18730913
-1.34,-0.86,0.01,-0.02,0.89,18734879
-1.34,-0.86,0.01,-0.02,0.89,18738829
-1.34,-0.86,0.01,-0.02,0.89,18742785
-1.34,-0.86,0.01,-0.02,0.89,18746735
-1.34,-0.86,0.01,-0.02,0.90,18750693
-1.34,-0.86,0.01,-0.02,0.90,18754648
-1.34,-0.86,0.01,-0.02,0.89,18758596
-1.34,-0.86,0.01,-0.02,0.89,18762556
-1.34,-0.86,0.01,-0.02,0.89,18766506
-1.34,-0.86,0.01,-0.02,0.89,18770460
-1.34,-0.86,0.01,-0.02,0.89,18774419
-1.34,-0.85,0.01,-0.02,0.89,18778370
-1.34,-0.85,0.01,-0.02,0.89,18782323
-1.34,-0.85,0.01,-0.02,0.89,18786267
-1.34,-0.85,0.01,-0.02,0.89,18790220
-1.34,-0.85,0.01,-0.02,0.89,18794178
-1.34,-0.85,0.01,-0.02,0.89,18798128
-1.34,-0.85,0.01,-0.02,0.89,18802085
-1.34,-0.85,0.01,-0.02,0.89,18806038
-1.34,-0.85,0.01,-0.02,0.89,18809988
-1.34,-0.85,0.01,-0.02,0.89,18813945
-1.34,-0.86,0.01,-0.02,0.89,18817885
-1.34,-0.86,0.01,-0.02,0.89,18821843
-1.34,-0.86,0.01,-0.02,0.89,18825791
-1.34,-0.86,0.01,-0.02,0.89,18829745
-1.34,-0.86,0.01,-0.02,0.89,18833692
-1.34,-0.86,0.01,-0.02,0.89,18837644
-1.34,-0.86,0.01,-0.02,0.89,18841605
-1.34,-0.86,0.01,-0.02,0.89,18845554
-1.34,-0.86,0.01,-0.02,0.89,18849521
-1.34,-0.86,0.01,-0.02,0.89,18853472
-1.34,-0.86,0.01,-0.02,0.89,18857431
-1.34,-0.86,0.01,-0.02,0.89,18861390
-1.34,-0.86,0.01,-0.02,0.89,18865338
-1.34,-0.86,0.01,-0.02,0.89,18869291
-1.34,-0.86,0.01,-0.02,0.89,18873239
-1.34,-0.86,0.01,-0.02,0.89,18877187
-1.34,-0.86,0.01,-0.02,0.89,18881149
-1.34,-0.86,0.01,-0.02,0.89,18885099
-1.33,-0.86,0.01,-0.02,0.89,18889058
-1.33,-0.86,0.01,-0.02,0.89,18892992
-1.33,-0.86,0.01,-0.02,0.89,18896946
-1.33,-0.86,0.01,-0.02,0.89,18900903
-1.33,-0.86,0.01,-0.02,0.89,18904849
-1.33,-0.86,0.01,-0.02,0.89,18908809
-1.33,-0.86,0.01,-0.02,0.89,18912752
-1.33,-0.86,0.01,-0.02,0.89,18916708
-1.33,-0.86,0.01,-0.02,0.89,18920667
-1.33,-0.86,0.01,-0.02,0.89,18924612
-1.33,-0.86,0.01,-0.02,0.89,18928570
-1.33,-0.86,0.01,-0.02,0.89,18932522
-1.34,-0.86,0.01,-0.02,0.89,18936478
-1.34,-0.86,0.01,-0.02,0.89,18940434
-1.34,-0.86,0.01,-0.02,0.89,18944378
-1.33,-0.86,0.01,-0.02,0.89,18948333
-1.33,-0.86,0.01,-0.02,0.89,18952282
-1.33,-0.86,0.01,-0.02,0.89,18956242
-1.33,-0.86,0.01,-0.02,0.89,18960187
-1.33,-0.86,0.01,-0.02,0.89,18964134
-1.33,-0.86,0.01,-0.02,0.89,18968094
-1.33,-0.86,0.01,-0.02,0.89,18972044
-1.33,-0.86,0.01,-0.02,0.89,18976000
-1.33,-0.86,0.01,-0.02,0.89,18979950
-1.33,-0.86,0.01,-0.02,0.89,18983907
-1.33,-0.86,0.01,-0.02,0.89,18987865
-1.33,-0.86,0.02,-0.02,0.89,18991806
-1.33,-0.86,0.02,-0.02,0.89,18995766
-1.33,-0.86,0.01,-0.02,0.89,18999705
-1.33,-0.86,0.01,-0.02,0.89,19003657
-1.33,-0.86,0.01,-0.02,0.89,19007604
-1.33,-0.86,0.01,-0.02,0.89,19011552
-1.33,-0.86,0.01,-0.02,0.90,19015522
-1.33,-0.86,0.01,-0.02,0.89,19019467
-1.33,-0.86,0.01,-0.02,0.89,19023417
-1.33,-0.86,0.01,-0.02,0.89,19027379
-1.33,-0.86,0.01,-0.02,0.89,19031330
-1.34,-0.86,0.01,-0.02,0.89,19035288
-1.34,-0.86,0.01,-0.02,0.89,19039236
-1.34,-0.86,0.01,-0.02,0.89,19043187
-1.34,-0.86,0.01,-0.02,0.89,19047138
-1.34,-0.86,0.01,-0.02,0.89,19051079
-1.34,-0.86,0.01,-0.02,0.89,19055036
-1.34,-0.87,0.01,-0.02,0.89,19058983
-1.34,-0.87,0.01,-0.02,0.89,19062939
-1.34,-0.87,0.01,-0.02,0.89,19066894
-1.34,-0.87,0.01,-0.02,0.89,19070834
-1.34,-0.87,0.01,-0.02,0.89,19074791
-1.34,-0.87,0.01,-0.02,0.89,19078741
-1.34,-0.87,0.01,-0.02,0.89,19082701
-1.34,-0.87,0.01,-0.02,0.89,19086649
-1.34,-0.87,0.01,-0.02,0.89,19090597
-1.34,-0.86,0.01,-0.02,0.89,19094555
-1.34,-0.86,0.01,-0.02,0.89,19098505
-1.34,-0.86,0.01,-0.02,0.89,19102469
-1.34,-0.87,0.01,-0.02,0.89,19106418
-1.34,-0.87,0.01,-0.02,0.89,19110373
-1.34,-0.87,0.01,-0.02,0.89,19114329
-1.34,-0.87,0.01,-0.02,0.89,19118280
-1.34,-0.87,0.01,-0.02,0.89,19122235
-1.34,-0.87,0.01,-0.02,0.89,19126182
-1.34,-0.87,0.01,-0.02,0.89,19130132
-1.34,-0.87,0.01,-0.02,0.89,19134094
-1.34,-0.87,0.01,-0.02,0.89,19138048
-1.34,-0.87,0.01,-0.02,0.89,19142009
-1.34,-0.87,0.01,-0.02,0.89,19145956
-1.34,-0.87,0.01,-0.02,0.89,19149907
-1.34,-0.86,0.01,-0.02,0.89,19153867
-1.34,-0.86,0.01,-0.02,0.89,19157813
-1.34,-0.86,0.01,-0.02,0.89,19161767
-1.34,-0.86,0.01,-0.02,0.89,19165717
-1.34,-0.86,0.01,-0.02,0.89,19169671
-1.34,-0.86,0.01,-0.02,0.89,19173634
-1.34,-0.86,0.01,-0.02,0.89,19177584
-1.34,-0.86,0.01,-0.02,0.89,19181543
-1.34,-0.86,0.01,-0.02,0.90,19185489
-1.34,-0.86,0.01,-0.02,0.90,19189442
-1.34,-0.86,0.01,-0.02,0.90,19193392
-1.34,-0.86,0.01,-0.02,0.89,19197336
-1.34,-0.86,0.01,-0.02,0.90,19201294
-1.34,-0.86,0.01,-0.02,0.90,19205233
-1.34,-0.87,0.01,-0.02,0.90,19209190
-1.34,-0.87,0.01,-0.02,0.89,19213133
-1.34,-0.87,0.01,-0.02,0.89,19217081
-1.34,-0.86,0.01,-0.02,0.89,19221044
-1.34,-0.86,0.01,-0.02,0.89,19224993
-1.34,-0.86,0.01,-0.02,0.89,19228952
-1.34,-0.86,0.01,-0.02,0.89,19232899
-1.34,-0.86,0.01,-0.02,0.89,19236850
-1.34,-0.87,0.01,-0.02,0.89,19240806
-1.34,-0.87,0.01,-0.02,0.89,19244755
-1.34,-0.87,0.01,-0.02,0.89,19248719
-1.35,-0.87,0.01,-0.02,0.89,19252663
-1.35,-0.87,0.01,-0.02,0.89,19256621
-1.35,-0.87,0.01,-0.02,0.89,19260578
-1.35,-0.86,0.01,-0.02,0.89,19264523
-1.35,-0.86,0.01,-0.02,0.89,19268489
-1.35,-0.86,0.01,-0.02,0.89,19272440
-1.35,-0.86,0.01,-0.02,0.89,19276396
-1.35,-0.86,0.01,-0.02,0.89,19280359
-1.35,-0.86,0.01,-0.02,0.89,19284312
-1.35,-0.86,0.01,-0.02,0.89,19288273
-1.35,-0.86,0.01,-0.02,0.89,19292214
-1.35,-0.86,0.01,-0.02,0.89,19296162
-1.35,-0.86,0.01,-0.02,0.89,19300120
-1.35,-0.86,0.01,-0.02,0.89,19304068
-1.35,-0.86,0.01,-0.02,0.89,19308029
-1.35,-0.86,0.01,-0.02,0.89,19311972
-1.35,-0.86,0.01,-0.02,0.89,19315919
-1.35,-0.86,0.01,-0.02,0.89,19319871
-1.35,-0.86,0.01,-0.02,0.89,19323827
-1.35,-0.86,0.01,-0.02,0.89,19327787
-1.35,-0.86,0.01,-0.02,0.89,19331733
-1.35,-0.86,0.01,-0.02,0.89,19335694
-1.35,-0.86,0.01,-0.02,0.89,19339637
-1.35,-0.86,0.01,-0.02,0.89,19343589
-1.35,-0.86,0.01,-0.02,0.89,19347557
-1.35,-0.86,0.01,-0.02,0.89,19351499
-1.34,-0.86,0.02,-0.02,0.89,19355461
-1.34,-0.86,0.02,-0.02,0.89,19359408
-1.34,-0.86,0.01,-0.02,0.89,19363355
-1.34,-0.86,0.01,-0.02,0.89,19367316
-1.34,-0.86,0.01,-0.02,0.89,19371262
-1.34,-0.86,0.01,-0.02,0.89,19375221
-1.34,-0.86,0.01,-0.02,0.89,19379167
-1.34,-0.86,0.01,-0.02,0.89,19383115
-1.34,-0.86,0.01,-0.02,0.89,19387072
-1.34,-0.86,0.01,-0.02,0.89,19391013
-1.34,-0.86,0.01,-0.02,0.89,19394978
-1.34,-0.86,0.01,-0.02,0.89,19398926
-1.34,-0.86,0.01,-0.02,0.89,19402870
-1.34,-0.86,0.01,-0.02,0.89,19406824
-1.34,-0.86,0.01,-0.02,0.89,19410769
-1.34,-0.86,0.01,-0.02,0.89,19414732
-1.34,-0.86,0.01,-0.02,0.89,19418678
-1.34,-0.86,0.01,-0.02,0.89,19422632
-1.34,-0.86,0.01,-0.02,0.89,19426588
-1.34,-0.86,0.01,-0.02,0.89,19430538
-1.34,-0.86,0.01,-0.02,0.89,19434496
-1.34,-0.86,0.01,-0.02,0.89,19438440
-1.34,-0.86,0.01,-0.02,0.89,19442401
-1.34,-0.86,0.01,-0.02,0.89,19446349
-1.34,-0.86,0.01,-0.02,0.89,19450295
-1.34,-0.86,0.01,-0.02,0.89,19454255
-1.34,-0.87,0.01,-0.02,0.89,19458201
-1.34,-0.87,0.01,-0.02,0.89,19462162
-1.34,-0.87,0.01,-0.02,0.89,19466107
-1.34,-0.87,0.01,-0.02,0.89,19470059
-1.34,-0.87,0.01,-0.02,0.89,19474013
-1.34,-0.87,0.01,-0.02,0.89,19477963
-1.34,-0.87,0.01,-0.02,0.89,19481918
-1.34,-0.87,0.01,-0.02,0.89,19485862
-1.34,-0.87,0.01,-0.02,0.89,19489807
-1.34,-0.87,0.01,-0.02,0.89,19493763
-1.34,-0.87,0.01,-0.02,0.89,19497714
-1.34,-0.87,0.01,-0.02,0.89,19501671
-1.34,-0.87,0.01,-0.02,0.89,19505622
-1.34,-0.87,0.01,-0.02,0.89,19509573
-1.34,-0.86,0.01,-0.02,0.89,19513525
-1.34,-0.86,0.01,-0.02,0.89,19517477
-1.34,-0.86,0.01,-0.02,0.89,19521433
-1.34,-0.86,0.01,-0.02,0.89,19525381
-1.34,-0.86,0.01,-0.02,0.89,19529335
-1.34,-0.86,0.01,-0.02,0.89,19533297
-1.34,-0.86,0.01,-0.02,0.89,19537246
-1.34,-0.86,0.01,-0.02,0.89,19541206
-1.34,-0.86,0.01,-0.02,0.89,19545151
-1.34,-0.86,0.01,-0.02,0.89,19549105
-1.34,-0.86,0.01,-0.02,0.89,19553062
-1.34,-0.86,0.01,-0.02,0.89,19557004
-1.34,-0.86,0.01,-0.02,0.89,19560959
-1.34,-0.86,0.01,-0.02,0.89,19564908
-1.34,-0.86,0.01,-0.02,0.89,19568860
-1.34,-0.86,0.01,-0.02,0.89,19572817
-1.34,-0.86,0.01,-0.02,0.89,19576761
-1.34,-0.86,0.01,-0.02,0.89,19580726
-1.34,-0.86,0.01,-0.02,0.89,19584669
-1.34,-0.86,0.01,-0.02,0.89,19588622
-1.34,-0.86,0.01,-0.02,0.89,19592574
-1.34,-0.86,0.01,-0.02,0.89,19596525
-1.34,-0.86,0.01,-0.02,0.89,19600487
-1.34,-0.86,0.01,-0.02,0.89,19604431
-1.34,-0.86,0.01,-0.02,0.89,19608394
-1.34,-0.86,0.01,-0.02,0.89,19612340
-1.34,-0.86,0.01,-0.02,0.89,19616297
-1.34,-0.86,0.01,-0.02,0.89,19620256
-1.34,-0.86,0.01,-0.02,0.89,19624201
-1.34,-0.86,0.01,-0.02,0.89,19628155
-1.34,-0.86,0.01,-0.02,0.89,19632104
-1.34,-0.86,0.01,-0.02,0.89,19636055
-1.34,-0.86,0.01,-0.02,0.89,19640008
-1.34,-0.86,0.01,-0.02,0.89,19643957
-1.34,-0.86,0.01,-0.02,0.89,19647915
-1.34,-0.86,0.01,-0.02,0.89,19651859
-1.34,-0.86,0.01,-0.02,0.89,19655811
-1.34,-0.86,0.01,-0.02,0.89,19659770
-1.34,-0.86,0.01,-0.02,0.89,19663717
-1.34,-0.86,0.01,-0.02,0.89,19667679
-1.34,-0.86,0.01,-0.02,0.89,19671619
-1.34,-0.86,0.01,-0.02,0.89,19675575
-1.34,-0.86,0.01,-0.02,0.89,19679537
-1.34,-0.86,0.01,-0.02,0.89,19683491
-1.34,-0.86,0.01,-0.02,0.89,19687453
-1.34,-0.86,0.01,-0.02,0.89,19691401
-1.34,-0.86,0.01,-0.02,0.89,19695354
-1.34,-0.86,0.01,-0.02,0.89,19699309
-1.34,-0.86,0.01,-0.02,0.89,19703256
-1.34,-0.86,0.01,-0.02,0.89,19707213
-1.34,-0.86,0.01,-0.02,0.89,19711163
-1.34,-0.86,0.01,-0.02,0.89,19715118
-1.34,-0.86,0.01,-0.02,0.90,19719066
-1.34,-0.86,0.01,-0.02,0.90,19723013
-1.34,-0.86,0.01,-0.02,0.89,19726973
-1.34,-0.86,0.01,-0.02,0.89,19730920
-1.34,-0.86,0.01,-0.02,0.89,19734875
-1.34,-0.86,0.01,-0.02,0.89,19738824
-1.34,-0.86,0.01,-0.02,0.90,19742778
-1.34,-0.86,0.01,-0.02,0.90,19746733
-1.34,-0.86,0.01,-0.02,0.90,19750672
-1.34,-0.86,0.01,-0.02,0.89,19754629
-1.34,-0.86,0.01,-0.02,0.89,19758575
-1.34,-0.86,0.01,-0.02,0.89,19762526
-1.34,-0.86,0.01,-0.02,0.89,19766483
-1.34,-0.86,0.01,-0.02,0.89,19770428
-1.34,-0.86,0.01,-0.02,0.89,19774390
-1.34,-0.86,0.01,-0.02,0.90,19778336
-1.34,-0.86,0.01,-0.02,0.89,19782289
-1.34,-0.86,0.01,-0.02,0.90,19786246
-1.34,-0.86,0.01,-0.02,0.90,19790189
-1.34,-0.86,0.01,-0.02,0.89,19794147
-1.34,-0.86,0.01,-0.02,0.89,19798093
-1.34,-0.86,0.01,-0.02,0.89,19802045
-1.34,-0.86,0.01,-0.02,0.90,19805998
-1.34,-0.86,0.01,-0.02,0.89,19809939
-1.34,-0.86,0.01,-0.02,0.89,19813893
-1.34,-0.86,0.01,-0.02,0.89,19817837
-1.34,-0.86,0.01,-0.02,0.89,19821784
-1.34,-0.86,0.01,-0.02,0.89,19825734
-1.34,-0.86,0.01,-0.02,0.89,19829681
-1.34,-0.86,0.01,-0.02,0.89,19833644
-1.34,-0.86,0.01,-0.02,0.89,19837592
-1.34,-0.86,0.01,-0.02,0.89,19841556
-1.34,-0.86,0.01,-0.02,0.89,19845500
-1.34,-0.86,0.01,-0.02,0.89,19849450
-1.34,-0.86,0.01,-0.02,0.89,19853412
-1.34,-0.86,0.01,-0.02,0.89,19857363
-1.34,-0.86,0.01,-0.02,0.89,19861321
-1.34,-0.86,0.01,-0.02,0.89,19865268
-1.34,-0.86,0.01,-0.02,0.89,19869221
-1.34,-0.86,0.01,-0.02,0.89,19873177
-1.34,-0.86,0.01,-0.02,0.89,19877121
-1.34,-0.86,0.01,-0.02,0.89,19881083
-1.34,-0.86,0.01,-0.02,0.89,19885030
-1.34,-0.86,0.01,-0.02,0.89,19888974
-1.34,-0.86,0.01,-0.02,0.89,19892933
-1.34,-0.86,0.01,-0.02,0.89,19896882
-1.34,-0.86,0.01,-0.02,0.89,19900840
-1.34,-0.86,0.01,-0.02,0.89,19904787
-1.34,-0.86,0.01,-0.02,0.89,19908733
-1.34,-0.86,0.01,-0.02,0.89,19912687
-1.34,-0.86,0.01,-0.02,0.89,19916634
-1.34,-0.86,0.01,-0.02,0.89,19920595
-1.34,-0.86,0.01,-0.02,0.89,19924543
-1.34,-0.86,0.01,-0.02,0.89,19928501
-1.34,-0.86,0.01,-0.02,0.89,19932462
-1.34,-0.86,0.01,-0.02,0.89,19936408
-1.34,-0.86,0.01,-0.02,0.89,19940369
-1.34,-0.86,0.01,-0.02,0.89,19944315
-1.34,-0.86,0.01,-0.02,0.89,19948272
-1.34,-0.86,0.01,-0.02,0.89,19952227
-1.34,-0.86,0.01,-0.02,0.89,19956174
-1.34,-0.86,0.01,-0.02,0.89,19960130
-1.34,-0.86,0.01,-0.02,0.89,19964075
-1.34,-0.86,0.01,-0.02,0.89,19968033
-1.34,-0.86,0.02,-0.02,0.89,19971973
-1.34,-0.86,0.01,-0.02,0.89,19975921
-1.34,-0.86,0.01,-0.02,0.89,19979886
-1.34,-0.86,0.01,-0.02,0.89,19983828
-1.34,-0.86,0.01,-0.02,0.89,19987785
-1.34,-0.86,0.01,-0.02,0.89,19991734
-1.34,-0.86,0.01,-0.02,0.89,19995689
-1.34,-0.86,0.01,-0.02,0.89,19999640
-1.34,-0.86,0.01,-0.02,0.89,20003587
-1.34,-0.86,0.01,-0.02,0.89,20007541
-1.34,-0.86,0.01,-0.02,0.89,20011493
-1.34,-0.86,0.01,-0.02,0.89,20015445
-1.34,-0.86,0.01,-0.02,0.89,20019400
-1.34,-0.86,0.01,-0.02,0.89,20023352
-1.34,-0.86,0.01,-0.02,0.89,20027309
-1.34,-0.86,0.01,-0.02,0.89,20031254
-1.34,-0.86,0.01,-0.02,0.89,20035208
-1.34,-0.86,0.01,-0.02,0.89,20039169
-1.34,-0.86,0.01,-0.02,0.89,20043117
-1.34,-0.86,0.01,-0.02,0.89,20047073
-1.34,-0.86,0.01,-0.02,0.89,20051026
-1.34,-0.86,0.01,-0.02,0.89,20054983
-1.34,-0.86,0.01,-0.02,0.89,20058941
-1.34,-0.86,0.01,-0.02,0.89,20062887
-1.34,-0.86,0.01,-0.02,0.89,20066851
-1.34,-0.86,0.01,-0.02,0.89,20070802
-1.34,-0.86,0.01,-0.02,0.89,20074748
-1.34,-0.86,0.01,-0.02,0.89,20078695
-1.34,-0.86,0.01,-0.02,0.89,20082644
-1.33,-0.86,0.01,-0.02,0.89,20086600
-1.33,-0.86,0.01,-0.02,0.89,20090550
-1.33,-0.86,0.01,-0.02,0.89,20094514
-1.34,-0.86,0.01,-0.02,0.89,20098462
-1.34,-0.86,0.01,-0.02,0.89,20102407
-1.34,-0.86,0.01,-0.02,0.89,20106364
-1.34,-0.86,0.01,-0.02,0.89,20110313
-1.34,-0.86,0.01,-0.02,0.89,20114271
-1.34,-0.86,0.01,-0.02,0.89,20118217
-1.34,-0.86,0.01,-0.02,0.89,20122175
-1.34,-0.86,0.01,-0.02,0.89,20126131
-1.34,-0.86,0.01,-0.02,0.89,20130080
-1.34,-0.86,0.01,-0.02,0.89,20134037
-1.34,-0.86,0.01,-0.02,0.89,20137989
-1.34,-0.86,0.01,-0.02,0.89,20141941
-1.34,-0.86,0.01,-0.02,0.89,20145896
-1.34,-0.86,0.01,-0.02,0.89,20149845
-1.34,-0.86,0.01,-0.02,0.89,20153801
-1.34,-0.86,0.01,-0.02,0.89,20157746
-1.34,-0.86,0.01,-0.02,0.89,20161696
-1.34,-0.86,0.01,-0.02,0.89,20165656
-1.34,-0.86,0.01,-0.02,0.89,20169606
-1.34,-0.86,0.01,-0.02,0.89,20173563
-1.34,-0.86,0.01,-0.02,0.89,20177515
-1.34,-0.86,0.01,-0.02,0.89,20181472
-1.34,-0.86,0.01,-0.02,0.89,20185432
-1.34,-0.86,0.01,-0.02,0.89,20189384
-1.34,-0.86,0.01,-0.02,0.89,20193337
-1.34,-0.86,0.01,-0.02,0.89,20197286
-1.34,-0.86,0.01,-0.02,0.89,20201241
-1.34,-0.86,0.01,-0.02,0.89,20205191
-1.34,-0.86,0.01,-0.02,0.89,20209145
-1.34,-0.86,0.01,-0.02,0.89,20213097
-1.34,-0.86,0.01,-0.02,0.89,20217043
-1.34,-0.86,0.01,-0.02,0.89,20221004
-1.34,-0.86,0.01,-0.02,0.89,20224952
-1.34,-0.86,0.01,-0.02,0.89,20228904
-1.34,-0.86,0.01,-0.02,0.89,20232865
-1.34,-0.86,0.01,-0.02,0.89,20236810
-1.34,-0.86,0.01,-0.02,0.89,20240764
-1.34,-0.86,0.01,-0.02,0.89,20244715
-1.34,-0.86,0.01,-0.02,0.89,20248668
-1.34,-0.86,0.01,-0.02,0.89,20252627
-1.34,-0.86,0.01,-0.02,0.89,20256577
-1.34,-0.86,0.01,-0.02,0.89,20260536
-1.34,-0.86,0.01,-0.02,0.89,20264484
-1.34,-0.86,0.01,-0.02,0.89,20268436
-1.34,-0.86,0.01,-0.02,0.89,20272394
-1.34,-0.86,0.01,-0.02,0.89,20276343
-1.34,-0.86,0.01,-0.02,0.89,20280301
-1.34,-0.86,0.01,-0.02,0.89,20284243
-1.34,-0.86,0.01,-0.02,0.89,20288196
-1.34,-0.86,0.01,-0.02,0.89,20292158
-1.34,-0.86,0.01,-0.02,0.89,20296101
-1.34,-0.86,0.01,-0.02,0.89,20300060
-1.34,-0.85,0.01,-0.02,0.89,20304012
-1.34,-0.85,0.01,-0.02,0.89,20307967
-1.34,-0.85,0.01,-0.02,0.89,20311919
-1.34,-0.85,0.01,-0.02,0.89,20315863
-1.34,-0.85,0.01,-0.02,0.89,20319818
-1.34,-0.85,0.01,-0.02,0.89,20323773
-1.34,-0.85,0.01,-0.02,0.89,20327724
-1.34,-0.85,0.01,-0.02,0.89,20331678
-1.34,-0.85,0.01,-0.02,0.89,20335623
-1.34,-0.85,0.01,-0.02,0.89,20339579
-1.34,-0.85,0.01,-0.02,0.89,20343526
-1.34,-0.85,0.01,-0.02,0.89,20347490
-1.34,-0.85,0.01,-0.02,0.89,20351439
-1.34,-0.85,0.01,-0.02,0.89,20355389
-1.34,-0.85,0.01,-0.02,0.89,20359349
-1.34,-0.85,0.01,-0.02,0.89,20363293
-1.34,-0.85,0.01,-0.02,0.89,20367246
-1.34,-0.85,0.01,-0.02,0.89,20371197
-1.34,-0.85,0.01,-0.02,0.89,20375145
-1.34,-0.85,0.01,-0.02,0.89,20379102
-1.34,-0.85,0.01,-0.02,0.89,20383050
-1.34,-0.85,0.01,-0.02,0.89,20387008
-1.34,-0.85,0.01,-0.02,0.89,20390957
-1.34,-0.85,0.01,-0.02,0.89,20394910
-1.34,-0.85,0.01,-0.02,0.89,20398870
-1.34,-0.85,0.01,-0.02,0.89,20402819
-1.34,-0.85,0.01,-0.02,0.89,20406780
-1.34,-0.85,0.01,-0.02,0.89,20410729
-1.34,-0.85,0.01,-0.02,0.89,20414681
-1.34,-0.85,0.01,-0.02,0.89,20418639
-1.34,-0.85,0.01,-0.02,0.89,20422585
-1.34,-0.85,0.01,-0.02,0.89,20426550
-1.34,-0.85,0.01,-0.02,0.89,20430500
-1.34,-0.85,0.01,-0.02,0.89,20434449
-1.34,-0.85,0.01,-0.02,0.89,20438407
-1.34,-0.85,0.01,-0.02,0.89,20442353
-1.34,-0.85,0.01,-0.02,0.89,20446310
-1.34,-0.85,0.01,-0.02,0.89,20450256
-1.34,-0.85,0.01,-0.02,0.89,20454205
-1.34,-0.85,0.01,-0.02,0.89,20458162
-1.34,-0.85,0.01,-0.02,0.89,20462106
-1.34,-0.85,0.01,-0.02,0.89,20466061
-1.34,-0.85,0.01,-0.02,0.89,20470007
-1.34,-0.85,0.01,-0.02,0.89,20473961
-1.34,-0.85,0.01,-0.02,0.89,20477906
-1.34,-0.85,0.01,-0.02,0.89,20481860
-1.34,-0.85,0.01,-0.02,0.89,20485817
-1.34,-0.85,0.01,-0.02,0.89,20489764
-1.34,-0.85,0.01,-0.02,0.89,20493723
-1.34,-0.85,0.01,-0.02,0.89,20497667
-1.34,-0.85,0.01,-0.02,0.89,20501622
-1.34,-0.85,0.01,-0.02,0.89,20505582
-1.34,-0.85,0.01,-0.02,0.89,20509532
-1.34,-0.85,0.01,-0.02,0.89,20513488
-1.34,-0.85,0.01,-0.02,0.89,20517431
-1.34,-0.85,0.01,-0.02,0.90,20521382
-1.34,-0.85,0.01,-0.02,0.89,20525342
-1.34,-0.85,0.01,-0.02,0.89,20529284
-1.34,-0.85,0.01,-0.02,0.89,20533240
-1.35,-0.85,0.01,-0.02,0.89,20537192
-1.35,-0.85,0.01,-0.02,0.89,20541149
-1.35,-0.85,0.01,-0.02,0.89,20545110
-1.35,-0.85,0.01,-0.02,0.89,20549056
-1.35,-0.85,0.01,-0.02,0.89,20553013
-1.35,-0.85,0.01,-0.02,0.89,20556963
-1.35,-0.85,0.01,-0.02,0.89,20560919
-1.35,-0.85,0.01,-0.02,0.89,20564874
-1.35,-0.85,0.01,-0.02,0.89,20568822
-1.35,-0.85,0.01,-0.02,0.89,20572777
-1.35,-0.85,0.01,-0.02,0.89,20576722
-1.35,-0.85,0.01,-0.02,0.89,20580677
-1.35,-0.85,0.01,-0.02,0.89,20584634
-1.35,-0.85,0.01,-0.02,0.89,20588578
-1.35,-0.85,0.01,-0.02,0.89,20592536
-1.35,-0.85,0.01,-0.02,0.89,20596483
-1.35,-0.85,0.01,-0.02,0.89,20600436
-1.35,-0.85,0.01,-0.02,0.89,20604384
-1.35,-0.85,0.01,-0.02,0.89,20608323
-1.35,-0.85,0.01,-0.02,0.89,20612279
-1.35,-0.85,0.01,-0.02,0.89,20616224
-1.34,-0.85,0.01,-0.02,0.89,20620182
-1.34,-0.85,0.01,-0.02,0.89,20624131
-1.34,-0.85,0.01,-0.02,0.89,20628081
-1.35,-0.85,0.01,-0.02,0.89,20632037
-1.35,-0.85,0.01,-0.02,0.89,20635985
-1.35,-0.85,0.01,-0.02,0.89,20639945
-1.35,-0.85,0.01,-0.02,0.89,20643894
-1.35,-0.85,0.01,-0.02,0.89,20647845
-1.35,-0.85,0.01,-0.02,0.89,20651798
-1.35,-0.85,0.01,-0.02,0.89,20655742
-1.35,-0.85,0.01,-0.02,0.89,20659707
-1.35,-0.85,0.01,-0.02,0.89,20663652
-1.35,-0.85,0.01,-0.02,0.89,20667613
-1.35,-0.85,0.01,-0.02,0.89,20671575
-1.35,-0.85,0.01,-0.02,0.89,20675523
-1.35,-0.85,0.01,-0.02,0.89,20679482
-1.35,-0.84,0.01,-0.02,0.89,20683430
-1.35,-0.84,0.01,-0.02,0.89,20687386
-1.35,-0.84,0.01,-0.02,0.89,20691345
-1.35,-0.84,0.01,-0.02,0.89,20695287
-1.35,-0.84,0.01,-0.02,0.89,20699241
-1.35,-0.84,0.01,-0.02,0.89,20703190
-1.35,-0.84,0.01,-0.02,0.89,20707151
-1.35,-0.84,0.01,-0.02,0.89,20711102
-1.35,-0.84,0.01,-0.02,0.89,20715056
-1.35,-0.84,0.01,-0.02,0.89,20719014
-1.35,-0.84,0.01,-0.02,0.89,20722960
-1.35,-0.84,0.01,-0.02,0.89,20726926
-1.35,-0.84,0.01,-0.02,0.89,20730876
-1.35,-0.84,0.01,-0.02,0.89,20734821
-1.35,-0.84,0.01,-0.02,0.89,20738780
-1.35,-0.84,0.01,-0.02,0.89,20742730
-1.35,-0.84,0.01,-0.02,0.89,20746689
-1.35,-0.84,0.01,-0.02,0.89,20750639
-1.35,-0.84,0.01,-0.02,0.89,20754600
-1.35,-0.84,0.01,-0.02,0.89,20758564
-1.35,-0.84,0.01,-0.02,0.89,20762513
-1.35,-0.84,0.01,-0.02,0.89,20766471
-1.35,-0.84,0.01,-0.02,0.89,20770424
-1.35,-0.84,0.01,-0.02,0.89,20774371
-1.35,-0.84,0.01,-0.02,0.89,20778327
-1.35,-0.84,0.01,-0.02,0.89,20782276
-1.35,-0.84,0.01,-0.02,0.89,20786234
-1.35,-0.84,0.01,-0.02,0.89,20790180
-1.35,-0.84,0.01,-0.02,0.89,20794132
-1.35,-0.84,0.01,-0.02,0.89,20798095
-1.35,-0.84,0.01,-0.02,0.89,20802047
-1.35,-0.84,0.01,-0.02,0.89,20806010
-1.35,-0.84,0.01,-0.02,0.89,20809958
-1.35,-0.84,0.01,-0.02,0.89,20813911
-1.35,-0.84,0.01,-0.02,0.89,20817870
-1.35,-0.84,0.01,-0.02,0.89,20821820
-1.35,-0.84,0.01,-0.02,0.89,20825776
-1.35,-0.84,0.01,-0.02,0.89,20829722
-1.35,-0.84,0.01,-0.02,0.89,20833673
-1.35,-0.84,0.01,-0.02,0.89,20837630
-1.35,-0.84,0.01,-0.02,0.89,20841577
-1.35,-0.84,0.01,-0.02,0.89,20845536
-1.36,-0.84,0.01,-0.02,0.89,20849486
-1.36,-0.84,0.01,-0.02,0.89,20853447
-1.36,-0.84,0.01,-0.02,0.89,20857391
-1.36,-0.84,0.01,-0.02,0.89,20861344
-1.36,-0.84,0.01,-0.02,0.89,20865301
-1.36,-0.84,0.01,-0.02,0.89,20869251
-1.36,-0.84,0.01,-0.02,0.89,20873204
-1.36,-0.84,0.01,-0.02,0.89,20877157
-1.36,-0.84,0.01,-0.02,0.89,20881113
-1.36,-0.84,0.01,-0.02,0.89,20885069
-1.36,-0.84,0.01,-0.02,0.89,20889018
-1.36,-0.84,0.01,-0.02,0.89,20892974
-1.36,-0.84,0.01,-0.02,0.89,20896923
-1.36,-0.84,0.01,-0.02,0.89,20900875
-1.36,-0.84,0.01,-0.02,0.89,20904834
-1.36,-0.84,0.01,-0.02,0.89,20908787
-1.36,-0.84,0.01,-0.02,0.89,20912748
-1.36,-0.84,0.01,-0.02,0.89,20916690
-1.36,-0.84,0.01,-0.02,0.89,20920645
-1.36,-0.84,0.01,-0.02,0.89,20924609
-1.36,-0.84,0.01,-0.02,0.89,20928559
-1.36,-0.84,0.02,-0.02,0.89,20932522
-1.36,-0.84,0.01,-0.02,0.89,20936467
-1.36,-0.85,0.02,-0.02,0.89,20940413
-1.36,-0.85,0.02,-0.02,0.89,20944370
-1.36,-0.85,0.02,-0.02,0.89,20948323
-1.36,-0.85,0.02,-0.02,0.89,20952281
-1.36,-0.85,0.02,-0.02,0.89,20956229
-1.36,-0.85,0.02,-0.02,0.89,20960181
-1.36,-0.85,0.01,-0.02,0.89,20964136
-1.36,-0.85,0.02,-0.02,0.89,20968083
-1.36,-0.85,0.01,-0.02,0.89,20972039
-1.36,-0.85,0.01,-0.02,0.89,20975990
-1.36,-0.85,0.01,-0.02,0.89,20979949
-1.36,-0.85,0.01,-0.02,0.89,20983888
-1.36,-0.85,0.01,-0.02,0.89,20987842
-1.36,-0.85,0.01,-0.02,0.89,20991796
-1.36,-0.85,0.01,-0.02,0.89,20995744
-1.36,-0.85,0.01,-0.02,0.89,20999701
-1.36,-0.85,0.01,-0.02,0.89,21003643
-1.36,-0.85,0.01,-0.02,0.89,21007597
-1.36,-0.85,0.01,-0.02,0.89,21011557
-1.36,-0.85,0.01,-0.02,0.89,21015507
-1.36,-0.85,0.01,-0.02,0.89,21019467
-1.36,-0.85,0.01,-0.02,0.89,21023417
-1.36,-0.85,0.01,-0.02,0.89,21027368
-1.36,-0.85,0.01,-0.02,0.89,21031317
-1.36,-0.85,0.01,-0.02,0.89,21035260
-1.36,-0.85,0.01,-0.02,0.89,21039217
-1.36,-0.85,0.01,-0.02,0.89,21043166
-1.36,-0.85,0.01,-0.02,0.89,21047119
-1.36,-0.85,0.01,-0.02,0.89,21051083
-1.36,-0.85,0.01,-0.02,0.89,21055031
-1.36,-0.85,0.01,-0.02,0.89,21058983
-1.36,-0.85,0.01,-0.02,0.89,21062931
-1.36,-0.85,0.01,-0.02,0.89,21066884
-1.36,-0.85,0.01,-0.02,0.89,21070841
-1.36,-0.85,0.01,-0.02,0.89,21074787
-1.36,-0.85,0.01,-0.02,0.89,21078742
-1.36,-0.85,0.01,-0.02,0.89,21082686
-1.36,-0.85,0.01,-0.02,0.89,21086635
-1.36,-0.85,0.01,-0.02,0.89,21090590
-1.36,-0.85,0.01,-0.02,0.89,21094543
-1.36,-0.85,0.01,-0.02,0.89,21098505
-1.36,-0.85,0.01,-0.02,0.89,21102449
-1.36,-0.85,0.01,-0.02,0.89,21106411
-1.36,-0.85,0.01,-0.02,0.89,21110361
-1.36,-0.85,0.01,-0.02,0.89,21114306
-1.36,-0.85,0.01,-0.02,0.89,21118268
-1.36,-0.85,0.01,-0.02,0.89,21122212
-1.35,-0.85,0.01,-0.02,0.89,21126174
-1.35,-0.85,0.01,-0.02,0.89,21130116
-1.35,-0.85,0.01,-0.02,0.89,21134070
-1.35,-0.85,0.01,-0.02,0.89,21138031
-1.35,-0.85,0.01,-0.02,0.89,21141976
-1.35,-0.85,0.01,-0.02,0.89,21145935
-1.35,-0.85,0.01,-0.02,0.89,21149878
-1.35,-0.85,0.01,-0.02,0.89,21153834
-1.35,-0.85,0.01,-0.02,0.89,21157788
-1.35,-0.85,0.01,-0.02,0.89,21161738
-1.35,-0.85,0.01,-0.02,0.89,21165690
-1.35,-0.85,0.01,-0.02,0.89,21169639
-1.35,-0.85,0.01,-0.02,0.89,21173595
-1.35,-0.85,0.01,-0.02,0.89,21177558
-1.35,-0.85,0.01,-0.02,0.89,21181508
-1.35,-0.85,0.01,-0.02,0.89,21185466
-1.35,-0.85,0.01,-0.02,0.89,21189418
-1.35,-0.85,0.01,-0.02,0.89,21193376
-1.35,-0.85,0.01,-0.02,0.89,21197333
-1.35,-0.85,0.01,-0.02,0.89,21201275
-1.35,-0.85,0.02,-0.02,0.89,21205234
-1.35,-0.85,0.02,-0.02,0.89,21209176
-1.35,-0.85,0.01,-0.02,0.89,21213131
-1.35,-0.85,0.01,-0.02,0.89,21217079
-1.35,-0.86,0.01,-0.02,0.89,21221025
-1.35,-0.86,0.02,-0.02,0.89,21224980
-1.35,-0.86,0.02,-0.02,0.89,21228930
-1.35,-0.86,0.01,-0.02,0.89,21232884
-1.35,-0.86,0.02,-0.02,0.89,21236831
-1.35,-0.86,0.02,-0.02,0.89,21240780
-1.35,-0.86,0.01,-0.02,0.89,21244735
-1.35,-0.86,0.01,-0.02,0.89,21248680
-1.35,-0.86,0.01,-0.02,0.89,21252641
-1.35,-0.86,0.01,-0.02,0.89,21256589
-1.35,-0.86,0.01,-0.02,0.89,21260549
-1.35,-0.86,0.01,-0.02,0.89,21264506
-1.35,-0.86,0.01,-0.02,0.89,21268460
-1.35,-0.86,0.01,-0.02,0.89,21272419
-1.35,-0.86,0.01,-0.02,0.89,21276365
-1.35,-0.86,0.01,-0.02,0.89,21280314
-1.35,-0.86,0.01,-0.02,0.89,21284268
-1.35,-0.86,0.01,-0.02,0.89,21288218
-1.35,-0.86,0.01,-0.02,0.89,21292172
-1.35,-0.86,0.01,-0.02,0.89,21296126
-1.35,-0.86,0.01,-0.02,0.89,21300079
-1.35,-0.86,0.01,-0.02,0.89,21304041
-1.35,-0.86,0.01,-0.02,0.89,21307984
-1.35,-0.86,0.01,-0.02,0.89,21311947
-1.35,-0.86,0.01,-0.02,0.89,21315896
-1.35,-0.86,0.01,-0.02,0.89,21319850
-1.35,-0.86,0.01,-0.02,0.89,21323809
-1.35,-0.86,0.01,-0.02,0.89,21327755
-1.35,-0.86,0.01,-0.02,0.89,21331712
-1.35,-0.86,0.01,-0.02,0.89,21335658
-1.35,-0.86,0.01,-0.02,0.89,21339613
-1.35,-0.86,0.01,-0.02,0.89,21343571
-1.35,-0.86,0.01,-0.02,0.89,21347520
-1.35,-0.86,0.01,-0.02,0.89,21351481
-1.35,-0.86,0.01,-0.02,0.89,21355428
-1.35,-0.86,0.01,-0.02,0.89,21359385
-1.35,-0.86,0.01,-0.02,0.89,21363330
-1.35,-0.86,0.01,-0.02,0.89,21367284
-1.35,-0.86,0.01,-0.02,0.89,21371246
-1.35,-0.86,0.01,-0.02,0.89,21375180
-1.35,-0.86,0.01,-0.02,0.89,21379142
-1.35,-0.86,0.01,-0.02,0.89,21383084
-1.35,-0.86,0.01,-0.02,0.89,21387035
-1.35,-0.86,0.01,-0.02,0.89,21390995
-1.35,-0.86,0.01,-0.02,0.89,21394936
-1.35,-0.86,0.01,-0.02,0.89,21398883
-1.35,-0.86,0.01,-0.02,0.89,21402834
-1.35,-0.86,0.01,-0.02,0.89,21406785
-1.35,-0.86,0.01,-0.02,0.89,21410741
-1.35,-0.86,0.01,-0.02,0.89,21414685
-1.35,-0.86,0.01,-0.02,0.89,21418646
-1.35,-0.86,0.01,-0.02,0.89,21422605
-1.35,-0.86,0.01,-0.02,0.89,21426561
-1.35,-0.86,0.01,-0.02,0.89,21430518
-1.35,-0.86,0.01,-0.02,0.89,21434468
-1.35,-0.86,0.01,-0.02,0.89,21438428
-1.35,-0.86,0.01,-0.02,0.89,21442374
-1.35,-0.86,0.01,-0.02,0.89,21446330
-1.35,-0.86,0.01,-0.02,0.89,21450288
-1.35,-0.86,0.02,-0.02,0.89,21454231
-1.35,-0.86,0.02,-0.02,0.89,21458188
-1.35,-0.86,0.01,-0.02,0.89,21462132
-1.35,-0.86,0.01,-0.02,0.89,21466085
-1.35,-0.87,0.01,-0.02,0.89,21470039
-1.35,-0.87,0.01,-0.02,0.89,21473992
-1.34,-0.87,0.01,-0.02,0.89,21477951
-1.34,-0.87,0.01,-0.02,0.89,21481895
-1.34,-0.87,0.01,-0.02,0.89,21485858
-1.34,-0.87,0.01,-0.02,0.89,21489811
-1.34,-0.87,0.01,-0.02,0.89,21493761
-1.34,-0.87,0.01,-0.02,0.89,21497721
-1.34,-0.87,0.01,-0.02,0.89,21501663
-1.34,-0.87,0.01,-0.02,0.89,21505627
-1.34,-0.87,0.01,-0.02,0.89,21509574
-1.34,-0.87,0.01,-0.02,0.89,21513530
-1.34,-0.87,0.01,-0.02,0.89,21517484
-1.34,-0.87,0.01,-0.02,0.89,21521436
-1.34,-0.87,0.01,-0.02,0.89,21525393
-1.34,-0.87,0.01,-0.02,0.89,21529346
-1.34,-0.87,0.01,-0.02,0.89,21533299
-1.34,-0.87,0.02,-0.02,0.89,21537264
-1.34,-0.87,0.01,-0.02,0.89,21541208
-1.34,-0.87,0.01,-0.02,0.89,21545167
-1.34,-0.87,0.01,-0.02,0.89,21549118
-1.34,-0.87,0.01,-0.02,0.89,21553075
-1.34,-0.87,0.01,-0.02,0.89,21557033
-1.34,-0.87,0.01,-0.02,0.89,21560978
-1.34,-0.87,0.01,-0.02,0.89,21564937
-1.34,-0.87,0.01,-0.02,0.89,21568884
-1.34,-0.87,0.01,-0.02,0.89,21572832
-1.34,-0.87,0.01,-0.02,0.89,21576794
-1.34,-0.87,0.01,-0.02,0.89,21580739
-1.34,-0.87,0.01,-0.02,0.89,21584699
-1.34,-0.87,0.01,-0.02,0.89,21588645
-1.34,-0.87,0.01,-0.02,0.89,21592600
-1.34,-0.87,0.01,-0.02,0.89,21596558
-1.34,-0.87,0.01,-0.02,0.89,21600509
-1.34,-0.87,0.01,-0.02,0.89,21604469
-1.34,-0.87,0.01,-0.02,0.89,21608419
-1.34,-0.87,0.01,-0.02,0.89,21612373
-1.34,-0.87,0.01,-0.02,0.89,21616323
-1.34,-0.87,0.01,-0.02,0.89,21620277
-1.34,-0.87,0.01,-0.02,0.89,21624240
-1.34,-0.87,0.01,-0.02,0.89,21628186
-1.34,-0.87,0.01,-0.02,0.89,21632144
-1.34,-0.87,0.01,-0.02,0.89,21636093
-1.34,-0.87,0.01,-0.02,0.89,21640044
-1.34,-0.87,0.01,-0.02,0.89,21644003
-1.34,-0.87,0.01,-0.02,0.89,21647951
-1.34,-0.87,0.01,-0.02,0.89,21651912
-1.34,-0.87,0.01,-0.02,0.89,21655855
-1.34,-0.87,0.01,-0.02,0.89,21659814
-1.34,-0.87,0.01,-0.02,0.89,21663770
-1.34,-0.87,0.01,-0.02,0.89,21667720
-1.34,-0.87,0.01,-0.02,0.89,21671678
-1.34,-0.87,0.01,-0.02,0.89,21675630
-1.34,-0.87,0.01,-0.02,0.89,21679587
-1.34,-0.87,0.01,-0.02,0.89,21683545
-1.34,-0.87,0.01,-0.02,0.89,21687502
-1.34,-0.87,0.01,-0.02,0.89,21691456
-1.34,-0.87,0.01,-0.02,0.89,21695408
-1.34,-0.87,0.01,-0.02,0.89,21699358
-1.34,-0.87,0.01,-0.02,0.89,21703317
-1.34,-0.87,0.01,-0.02,0.89,21707267
-1.34,-0.87,0.01,-0.02,0.89,21711221
-1.34,-0.87,0.01,-0.02,0.89,21715167
-1.34,-0.87,0.01,-0.02,0.89,21719121
-1.34,-0.87,0.01,-0.02,0.89,21723072
-1.34,-0.87,0.01,-0.02,0.89,21727018
-1.34,-0.87,0.01,-0.02,0.89,21730978
-1.34,-0.87,0.01,-0.02,0.89,21734921
-1.34,-0.87,0.01,-0.02,0.89,21738881
-1.34,-0.87,0.01,-0.02,0.89,21742829
-1.34,-0.87,0.01,-0.02,0.89,21746777
-1.34,-0.87,0.01,-0.02,0.89,21750736
-1.34,-0.87,0.01,-0.02,0.89,21754685
-1.34,-0.87,0.01,-0.02,0.89,21758643
-1.34,-0.87,0.01,-0.02,0.89,21762597
-1.34,-0.87,0.01,-0.02,0.89,21766556
-1.34,-0.87,0.01,-0.02,0.89,21770515
-1.34,-0.87,0.01,-0.02,0.89,21774460
-1.34,-0.87,0.01,-0.02,0.89,21778412
-1.34,-0.87,0.01,-0.02,0.89,21782359
-1.34,-0.87,0.01,-0.02,0.89,21786315
-1.34,-0.87,0.01,-0.02,0.89,21790272
-1.34,-0.87,0.01,-0.02,0.89,21794215
-1.34,-0.87,0.01,-0.02,0.89,21798170
-1.34,-0.87,0.01,-0.02,0.89,21802122
-1.34,-0.87,0.01,-0.02,0.89,21806077
-1.34,-0.87,0.01,-0.02,0.89,21810031
-1.34,-0.87,0.01,-0.02,0.89,21813977
-1.34,-0.87,0.01,-0.02,0.89,21817938
-1.34,-0.87,0.02,-0.02,0.89,21821887
-1.34,-0.87,0.01,-0.02,0.89,21825845
-1.34,-0.87,0.01,-0.02,0.89,21829802
-1.34,-0.87,0.01,-0.02,0.89,21833740
-1.34,-0.87,0.01,-0.02,0.89,21837687
-1.33,-0.87,0.01,-0.02,0.89,21841624
-1.33,-0.87,0.01,-0.02,0.89,21845576
-1.33,-0.87,0.01,-0.02,0.89,21849536
-1.33,-0.87,0.01,-0.02,0.89,21853480
-1.33,-0.87,0.01,-0.02,0.89,21857437
-1.33,-0.87,0.01,-0.02,0.89,21861378
-1.33,-0.87,0.01,-0.02,0.89,21865338
-1.33,-0.87,0.01,-0.02,0.89,21869283
-1.33,-0.87,0.01,-0.02,0.89,21873236
-1.33,-0.87,0.01,-0.02,0.89,21877191
-1.33,-0.87,0.01,-0.02,0.89,21881134
-1.33,-0.87,0.01,-0.02,0.89,21885085
-1.33,-0.87,0.01,-0.02,0.89,21889029
-1.33,-0.87,0.01,-0.02,0.89,21892985
-1.33,-0.87,0.01,-0.02,0.89,21896940
-1.33,-0.86,0.01,-0.02,0.89,21900889
-1.33,-0.86,0.01,-0.02,0.89,21904843
-1.33,-0.86,0.01,-0.02,0.89,21908789
-1.33,-0.86,0.01,-0.02,0.89,21912733
-1.33,-0.86,0.01,-0.02,0.89,21916692
-1.33,-0.86,0.01,-0.02,0.89,21920642
-1.33,-0.86,0.01,-0.02,0.89,21924602
-1.33,-0.86,0.01,-0.02,0.89,21928552
-1.33,-0.86,0.01,-0.02,0.89,21932500
-1.33,-0.86,0.01,-0.02,0.89,21936463
-1.33,-0.86,0.01,-0.02,0.89,21940412
-1.33,-0.86,0.01,-0.02,0.89,21944375
-1.33,-0.86,0.01,-0.02,0.89,21948329
-1.33,-0.86,0.01,-0.02,0.89,21952284
-1.33,-0.86,0.01,-0.02,0.89,21956234
-1.33,-0.86,0.01,-0.02,0.89,21960182
-1.33,-0.86,0.01,-0.02,0.89,21964142
-1.33,-0.86,0.01,-0.02,0.89,21968085
-1.33,-0.86,0.01,-0.02,0.89,21972040
-1.33,-0.86,0.01,-0.02,0.89,21975998
-1.33,-0.86,0.02,-0.02,0.89,21979944
-1.33,-0.86,0.02,-0.02,0.89,21983900
-1.33,-0.86,0.02,-0.02,0.89,21987848
-1.33,-0.86,0.01,-0.02,0.89,21991809
-1.33,-0.86,0.01,-0.02,0.89,21995761
-1.33,-0.86,0.01,-0.02,0.89,21999714
-1.33,-0.86,0.01,-0.02,0.89,22003674
-1.33,-0.87,0.01,-0.02,0.89,22007618
-1.33,-0.87,0.01,-0.02,0.89,22011579
-1.33,-0.87,0.01,-0.02,0.89,22015528
-1.33,-0.87,0.01,-0.02,0.89,22019480
-1.33,-0.87,0.01,-0.02,0.89,22023438
-1.33,-0.87,0.01,-0.02,0.89,22027386
-1.33,-0.87,0.01,-0.02,0.89,22031342
-1.33,-0.87,0.01,-0.02,0.89,22035288
-1.33,-0.87,0.01,-0.02,0.89,22039237
-1.33,-0.87,0.01,-0.02,0.89,22043192
-1.33,-0.87,0.01,-0.02,0.89,22047133
-1.33,-0.87,0.01,-0.02,0.89,22051091
-1.33,-0.87,0.01,-0.02,0.89,22055037
-1.33,-0.87,0.01,-0.02,0.89,22058989
-1.33,-0.87,0.01,-0.02,0.89,22062947
-1.33,-0.87,0.01,-0.02,0.89,22066893
-1.33,-0.87,0.01,-0.02,0.89,22070858
-1.33,-0.86,0.01,-0.02,0.89,22074807
-1.33,-0.86,0.01,-0.02,0.89,22078756
-1.33,-0.86,0.01,-0.02,0.89,22082709
-1.33,-0.86,0.01,-0.02,0.89,22086659
-1.33,-0.86,0.01,-0.02,0.89,22090621
-1.33,-0.86,0.01,-0.02,0.89,22094573
-1.33,-0.86,0.01,-0.02,0.89,22098531
-1.33,-0.86,0.01,-0.02,0.89,22102479
-1.33,-0.86,0.01,-0.02,0.89,22106428
-1.33,-0.86,0.01,-0.02,0.89,22110389
-1.33,-0.86,0.01,-0.02,0.89,22114336
-1.33,-0.86,0.01,-0.02,0.89,22118294
-1.34,-0.86,0.01,-0.02,0.89,22122238
-1.34,-0.86,0.01,-0.02,0.89,22126186
-1.34,-0.86,0.01,-0.02,0.89,22130141
-1.34,-0.86,0.01,-0.02,0.89,22134090
-1.34,-0.86,0.01,-0.02,0.89,22138050
-1.34,-0.86,0.01,-0.02,0.89,22141998
-1.34,-0.86,0.01,-0.02,0.89,22145953
-1.34,-0.86,0.01,-0.02,0.89,22149911
-1.34,-0.86,0.01,-0.02,0.89,22153864
-1.34,-0.86,0.01,-0.02,0.89,22157827
-1.34,-0.86,0.01,-0.02,0.89,22161776
-1.34,-0.86,0.01,-0.02,0.89,22165726
-1.34,-0.86,0.01,-0.02,0.89,22169684
-1.34,-0.86,0.01,-0.02,0.89,22173630
-1.34,-0.86,0.01,-0.02,0.89,22177594
-1.34,-0.86,0.01,-0.02,0.89,22181545
-1.34,-0.86,0.01,-0.02,0.89,22185498
-1.34,-0.86,0.01,-0.02,0.89,22189460
-1.34,-0.86,0.01,-0.02,0.89,22193405
-1.34,-0.86,0.01,-0.02,0.89,22197360
-1.34,-0.86,0.01,-0.02,0.89,22201306
-1.34,-0.86,0.01,-0.02,0.89,22205255
-1.34,-0.86,0.01,-0.02,0.89,22209210
-1.34,-0.86,0.01,-0.02,0.89,22213158
-1.34,-0.86,0.01,-0.02,0.90,22217116
-1.34,-0.86,0.01,-0.02,0.89,22221063
-1.34,-0.86,0.01,-0.02,0.89,22225011
-1.34,-0.86,0.01,-0.02,0.89,22228963
-1.34,-0.86,0.01,-0.02,0.89,22232912
-1.34,-0.86,0.01,-0.02,0.89,22236868
-1.34,-0.86,0.02,-0.02,0.89,22240814
-1.34,-0.86,0.02,-0.02,0.89,22244770
-1.34,-0.86,0.02,-0.02,0.89,22248716
-1.34,-0.86,0.01,-0.02,0.89,22252668
-1.34,-0.86,0.01,-0.02,0.89,22256628
-1.34,-0.86,0.01,-0.02,0.89,22260568
-1.34,-0.86,0.01,-0.02,0.89,22264526
-1.33,-0.86,0.01,-0.02,0.89,22268475
-1.33,-0.86,0.01,-0.02,0.89,22272429
-1.33,-0.86,0.01,-0.02,0.89,22276386
